"Time (s)","Acceleration x (m/s^2)","Acceleration y (m/s^2)","Acceleration z (m/s^2)"
0.000000000E0,4.554729536E-2,3.053947985E-1,1.007404423E1
1.199375000E-2,7.935342193E-2,3.068887591E-1,9.985353470E0
2.199375000E-2,7.703583688E-2,3.580576479E-1,9.890514374E0
3.199375000E-2,3.532884270E-2,4.485776424E-1,9.814608574E0
4.200000000E-2,6.702806801E-2,4.729697704E-1,9.807033539E0
5.399375000E-2,5.131253228E-2,5.135850310E-1,9.832535744E0
6.399375000E-2,1.645295322E-2,5.427942276E-1,9.864657402E0
7.599531200E-2,9.002198465E-3,5.109992623E-1,9.860260963E0
8.799375000E-2,-1.071644668E-2,4.992485046E-1,9.869790077E0
9.999843700E-2,-3.721546754E-2,4.674439430E-1,9.914427757E0
1.119937500E-1,3.755065799E-2,4.096575081E-1,9.889489174E0
1.240062500E-1,7.992803305E-2,4.644655585E-1,9.861850739E0
1.359937500E-1,-5.075707450E-4,4.778060317E-1,9.763870239E0
1.459937500E-1,-3.939898312E-2,4.518145919E-1,9.785417557E0
1.559937500E-1,-1.355118211E-2,4.983865917E-1,9.895695686E0
1.679937500E-1,-4.528871924E-2,5.320107341E-1,9.830669403E0
1.779937500E-1,-3.172796220E-2,5.406777859E-1,9.779633522E0
1.899937500E-1,2.122220397E-2,5.735166669E-1,9.787784576E0
2.000078120E-1,5.126464739E-2,5.540757179E-1,9.810414314E0
2.119921870E-1,8.233180642E-2,4.825370014E-1,9.923698425E0
2.219937500E-1,1.402523369E-1,4.305828214E-1,9.963584900E0
2.319937500E-1,7.943961024E-2,4.070621729E-1,9.935524940E0
2.420031250E-1,7.264008373E-2,4.082688689E-1,9.886233330E0
2.539937500E-1,8.825984597E-2,4.425825477E-1,9.931714058E0
2.639937500E-1,2.472731657E-2,4.460014701E-1,9.918334961E0
2.760062500E-1,8.152735978E-2,4.143118262E-1,9.978151321E0
2.879921870E-1,3.426581621E-2,4.728165269E-1,9.865116119E0
2.979921870E-1,1.402044483E-2,4.907538891E-1,9.859437943E0
3.079937500E-1,8.408436924E-2,4.878233969E-1,9.886319160E0
3.180046870E-1,6.416460127E-2,5.350370407E-1,9.842007637E0
3.299937500E-1,2.127966471E-2,5.636525154E-1,9.810787201E0
3.399937500E-1,4.388092831E-2,5.783529878E-1,9.802446365E0
3.519984370E-1,1.375229470E-2,5.944802761E-1,9.682439804E0
3.639921870E-1,4.890875146E-2,5.593525171E-1,9.704916000E0
3.739921870E-1,6.691315025E-2,5.298368335E-1,9.857666016E0
3.839921870E-1,1.284249779E-2,4.892120361E-1,9.845656395E0
3.940031250E-1,2.017833106E-2,4.605007768E-1,9.884212494E0
4.059921870E-1,6.960423291E-2,4.363959432E-1,9.912378311E0
4.159937500E-1,1.009395421E-1,4.359362423E-1,9.933733940E0
4.259937500E-1,6.798575073E-2,4.903612435E-1,9.888311386E0
4.359984370E-1,7.539819926E-2,5.002828240E-1,9.773781776E0
4.479937500E-1,1.103248149E-1,5.411661863E-1,9.770823479E0
4.579937500E-1,4.447469115E-2,5.889161229E-1,9.710240364E0
4.699921870E-1,3.554910794E-2,5.972575545E-1,9.706418991E0
4.799937500E-1,4.154418781E-2,5.628097653E-1,9.745033264E0
4.899937500E-1,5.587109178E-2,5.567763448E-1,9.814148903E0
5.019937500E-1,7.511088997E-2,5.318288207E-1,9.922280312E0
5.119937500E-1,4.727111757E-2,4.692635238E-1,1.002011681E1
5.219937500E-1,1.135713533E-1,4.457620680E-1,1.008334351E1
5.319984370E-1,7.928638160E-2,4.008851349E-1,1.015523624E1
5.439937500E-1,9.821014851E-2,4.208336174E-1,1.018419647E1
5.559921870E-1,5.886863172E-2,4.894705713E-1,9.929243088E0
5.659968750E-1,2.565626614E-2,5.827391148E-1,9.800071716E0
5.779921870E-1,1.078348421E-2,6.088933945E-1,9.712156296E0
5.879937500E-1,1.991975866E-2,6.447201967E-1,9.656590462E0
5.979937500E-1,3.281014040E-2,5.805076957E-1,9.484840393E0
6.079937500E-1,2.485181391E-2,5.380920172E-1,9.486707687E0
6.199937500E-1,-5.420472473E-3,5.333419442E-1,9.766667366E0
6.299937500E-1,3.574064374E-2,5.107981563E-1,9.890226364E0
6.419921870E-1,6.884766370E-2,5.503982306E-1,9.853356361E0
6.519937500E-1,9.581594914E-2,5.814175606E-1,9.896921158E0
6.619937500E-1,5.605304986E-2,5.334185958E-1,9.951576233E0
6.719937500E-1,4.865017533E-2,5.254315138E-1,9.896548271E0
6.819937500E-1,5.046977103E-2,5.179520249E-1,9.856076241E0
6.919937500E-1,3.134488687E-2,5.179903507E-1,9.818620682E0
7.039937500E-1,8.107724786E-2,5.772420168E-1,9.809360504E0
7.139937500E-1,9.255983680E-2,6.152523756E-1,9.756381989E0
7.259921870E-1,1.060056761E-1,6.433986425E-1,9.755031586E0
7.359921870E-1,9.304825962E-2,6.085485816E-1,9.880555153E0
7.459921870E-1,2.073378675E-2,5.622351766E-1,9.868008614E0
7.559921870E-1,5.324704573E-2,5.757672191E-1,9.873457909E0
7.659921870E-1,1.005468965E-1,5.594674945E-1,9.864522934E0
7.759937500E-1,7.497682422E-2,5.697625875E-1,9.898797989E0
7.859937500E-1,8.282022923E-2,5.841565132E-1,9.921283722E0
7.979921870E-1,1.162815839E-1,6.072269678E-1,9.998368263E0
8.079937500E-1,2.031240761E-1,5.644378662E-1,1.004183674E1
8.179937500E-1,1.973492652E-1,5.274043083E-1,1.001181412E1
8.299937500E-1,1.285877824E-1,5.505897999E-1,1.001937962E1
8.399937500E-1,9.753978252E-2,5.637196302E-1,9.986732483E0
8.499937500E-1,5.586151406E-2,5.636238456E-1,9.902744293E0
8.619937500E-1,1.219319105E-1,6.584054828E-1,9.787707329E0
8.719937500E-1,1.769219339E-1,6.894630790E-1,9.687945366E0
8.839921870E-1,2.011895627E-1,7.271286845E-1,9.654109955E0
8.939937500E-1,1.958265454E-1,6.803076267E-1,9.756832123E0
9.039937500E-1,1.668567061E-1,6.452851892E-1,9.808900833E0
9.139937500E-1,1.635048240E-1,5.429666042E-1,9.844803810E0
9.239937500E-1,1.193940490E-1,5.218114853E-1,9.829788208E0
9.339937500E-1,8.120174706E-2,5.242248774E-1,9.771866798E0
9.439937500E-1,3.092350997E-2,5.188235044E-1,9.752205849E0
9.559921870E-1,-5.250005424E-2,6.072652936E-1,9.856104851E0
9.659937500E-1,-2.304179780E-2,6.425654292E-1,9.821752548E0
9.759937500E-1,3.790500388E-2,6.962147355E-1,9.865548134E0
9.879921870E-1,7.148128748E-2,7.123420238E-1,9.908853531E0
9.979921870E-1,3.344221041E-2,7.101585269E-1,9.850732803E0
1.007992187E0,5.901228264E-2,7.407947183E-1,9.951078415E0
1.017993750E0,9.730035439E-3,5.618712902E-1,9.887038231E0
1.027993750E0,-1.873031855E-1,5.998433232E-1,1.011476421E1
1.039992187E0,8.845138550E-2,4.553867579E-1,1.005786896E1
1.049993750E0,1.280514896E-1,4.055681825E-1,9.901259422E0
1.059993750E0,1.099321693E-1,4.598878622E-1,9.853509903E0
1.071992187E0,-1.283292100E-2,6.170911193E-1,9.731893539E0
1.081993750E0,-1.169328094E-1,6.305657029E-1,9.720295906E0
1.091993750E0,-1.427614540E-1,6.548812389E-1,9.840015411E0
1.103993750E0,-1.339124888E-1,6.451416016E-1,1.002623653E1
1.113993750E0,-1.507963985E-1,5.783720613E-1,9.995781898E0
1.124006250E0,-3.866156936E-2,6.360244751E-1,9.829539299E0
1.135993750E0,-1.291911211E-2,5.354201198E-1,9.719434738E0
1.145993750E0,-3.309744224E-2,4.500045776E-1,9.812932968E0
1.157993750E0,-7.805097103E-2,4.143788517E-1,9.958145142E0
1.169992187E0,-2.826019824E-1,5.011830330E-1,1.001731110E1
1.179992187E0,-3.369311988E-1,6.180967093E-1,9.885677338E0
1.189993750E0,-3.721163869E-1,5.740816593E-1,9.835207939E0
1.199993750E0,-2.577214241E-1,4.901026487E-1,9.956814766E0
1.211992187E0,-2.202186733E-1,5.706244707E-1,9.802848816E0
1.221993750E0,-3.351786435E-1,5.563741326E-1,9.600059509E0
1.231993750E0,-3.682473898E-1,5.231330395E-1,9.626415253E0
1.243993750E0,-2.973598540E-1,5.372014046E-1,9.886712074E0
1.253993750E0,-3.240121007E-1,4.786583781E-1,1.000940037E1
1.263993750E0,-3.758800924E-1,3.960967362E-1,9.940189362E0
1.275993750E0,-3.130179346E-1,3.855143487E-1,9.823744774E0
1.285993750E0,-3.370844424E-1,3.642251194E-1,9.882834435E0
1.297992187E0,-4.099352062E-1,4.350743294E-1,9.901421547E0
1.308035937E0,-4.101650715E-1,4.373153150E-1,9.883408546E0
1.319992187E0,-4.389337897E-1,5.216295123E-1,9.777853012E0
1.329993750E0,-3.723366559E-1,5.691113472E-1,9.736001968E0
1.339993750E0,-2.399756312E-1,5.323363543E-1,9.718247414E0
1.349993750E0,-2.042828649E-1,4.604337215E-1,9.792897224E0
1.361993750E0,-1.499919444E-1,3.502908647E-1,1.001143074E1
1.371993750E0,-2.058247328E-1,3.791936636E-1,9.959869385E0
1.383992187E0,-2.606711090E-1,4.931385219E-1,9.861812592E0
1.393993750E0,-3.551941812E-1,5.280459523E-1,9.619423866E0
1.403993750E0,-3.661117554E-1,5.777112842E-1,9.463494301E0
1.415993750E0,-2.242983878E-1,5.964052081E-1,9.552787781E0
1.425993750E0,-2.323907912E-1,5.646198392E-1,9.593375206E0
1.435993750E0,-2.422070205E-1,5.353722572E-1,9.828782082E0
1.445993750E0,-1.209359095E-1,4.983482957E-1,9.986512184E0
1.457993750E0,-1.562647521E-1,5.099841356E-1,9.909150124E0
1.469992187E0,-1.731869876E-1,5.488372445E-1,9.721291542E0
1.479993750E0,-1.399746090E-1,5.652039647E-1,9.650547981E0
1.489993750E0,-7.423940301E-2,5.383410454E-1,9.555661201E0
1.501993750E0,1.997721940E-2,5.165920854E-1,9.675285339E0
1.511993750E0,6.031472608E-2,5.099458098E-1,9.780295372E0
1.521993750E0,7.422025502E-2,4.853334129E-1,9.820248604E0
1.533993750E0,1.362109184E-1,4.490469098E-1,9.975153923E0
1.543993750E0,1.267777681E-1,4.191959798E-1,9.903711319E0
1.555992187E0,5.368757993E-2,4.187937677E-1,9.859140396E0
1.565993750E0,-8.072290570E-2,4.237353802E-1,9.947735786E0
1.575993750E0,-2.055278420E-1,4.457907677E-1,1.014164639E1
1.585993750E0,-2.883002162E-1,4.843374193E-1,1.003197384E1
1.595993750E0,-2.132850587E-1,5.463759899E-1,9.857455254E0
1.605993750E0,-1.365939975E-1,6.423355937E-1,9.783253670E0
1.617993750E0,-2.137543261E-2,7.962636352E-1,9.913105011E0
1.627993750E0,-6.943184882E-3,8.196309805E-1,9.892745972E0
1.639992187E0,1.701511294E-1,6.606847644E-1,9.966458321E0
1.649993750E0,-9.117119946E-3,4.719929099E-1,1.005123234E1
1.661993750E0,1.087925285E-1,2.085924298E-1,1.020551491E1
1.673993750E0,3.665139675E-1,1.494556367E-1,1.035665512E1
1.683993750E0,3.607870340E-1,2.070218325E-1,1.039670563E1
1.693993750E0,3.260040879E-1,3.899005353E-1,1.021404743E1
1.705993750E0,3.398808539E-1,6.751552820E-1,1.002262592E1
1.715993750E0,2.903400660E-1,9.403083324E-1,1.025403976E1
1.727992187E0,5.698200315E-2,1.035070777E0,9.989892960E0
1.737993750E0,1.444757134E-1,9.832411408E-1,9.819061279E0
1.747993750E0,6.818686612E-3,8.293323517E-1,9.777910233E0
1.759993750E0,-1.495609879E-1,6.552930474E-1,9.735753059E0
1.769993750E0,7.489063591E-2,3.975906968E-1,9.788013458E0
1.779993750E0,2.086690366E-1,3.214167655E-1,9.827824593E0
1.791993750E0,3.524264693E-1,2.900336087E-1,9.971657753E0
1.801993750E0,3.431082368E-1,3.031059206E-1,9.910300255E0
1.813992187E0,1.629780978E-1,4.377941489E-1,9.874827385E0
1.823993750E0,1.810016483E-1,6.261795163E-1,1.020515060E1
1.833993750E0,1.512177736E-1,6.534829736E-1,1.028597832E1
1.845993750E0,1.547516137E-1,7.413693070E-1,9.971849442E0
1.855993750E0,-3.346136585E-2,6.709989905E-1,9.937125206E0
1.865993750E0,-2.697978020E-1,5.863112807E-1,9.614893913E0
1.875993750E0,-4.800853506E-2,4.708053768E-1,9.349731445E0
1.887993750E0,4.620713592E-1,2.530575395E-1,9.286026001E0
1.899992187E0,1.413345188E-1,3.837426305E-1,9.334244728E0
1.909993750E0,-1.397639215E-1,4.752681851E-1,9.325396538E0
1.919993750E0,-2.353212833E-1,4.917977452E-1,9.389791489E0
1.931993750E0,-3.980791271E-1,6.025726795E-1,9.711465836E0
1.943992187E0,-3.769048154E-1,6.311690211E-1,9.896116257E0
1.953992187E0,-4.145991206E-1,6.361393929E-1,9.749811172E0
1.963993750E0,-3.677876890E-1,6.109907031E-1,9.583903313E0
1.975993750E0,-2.339326590E-1,4.504642785E-1,9.805606842E0
1.987992187E0,-1.517828107E-1,3.021386862E-1,9.876791000E0
1.997992187E0,-1.553645283E-1,3.175381720E-1,9.827748299E0
2.007992187E0,-3.576267064E-1,3.502717018E-1,9.796680450E0
2.017993750E0,-2.229767889E-1,4.211400747E-1,9.746680260E0
2.027993750E0,-3.119357526E-1,5.571115613E-1,9.861917496E0
2.039993750E0,-1.978472471E-1,8.702253103E-1,9.837353706E0
2.049993750E0,-5.178179592E-2,1.038767457E0,9.670966148E0
2.059993750E0,-1.808580011E-1,1.206371188E0,9.737151146E0
2.069993750E0,-6.288418770E-1,1.176443696E0,9.676271439E0
2.081993750E0,-7.339856625E-1,1.050834179E0,9.387081146E0
2.091993750E0,-1.769123524E-1,8.069512844E-1,9.622171402E0
2.103993750E0,2.329654098E-1,5.309381485E-1,9.848366737E0
2.113993750E0,2.534501851E-1,6.092190146E-1,1.013839054E1
2.124006250E0,2.074815184E-1,5.815228820E-1,1.027781963E1
2.135993750E0,3.626449406E-1,6.293111444E-1,1.054685116E1
2.145993750E0,3.151727021E-1,6.606751680E-1,1.061493301E1
2.155993750E0,1.254848987E-1,6.309391856E-1,1.039143848E1
2.167993750E0,-1.703426689E-1,6.350476146E-1,1.031836796E1
2.177993750E0,-2.793745995E-1,6.165931225E-1,1.029658985E1
2.189993750E0,-5.658648014E-1,6.803172231E-1,9.902858734E0
2.199993750E0,-6.441838741E-1,7.219475508E-1,9.689967155E0
2.211992187E0,-8.315157890E-1,7.589332461E-1,9.385959625E0
2.221993750E0,-7.423270345E-1,8.713170290E-1,9.613447189E0
2.231993750E0,-6.940024495E-1,9.017233849E-1,9.611225128E0
2.243992187E0,-7.377110124E-1,9.562633038E-1,9.612719536E0
2.253993750E0,-7.599196434E-1,9.408063293E-1,9.693098068E0
2.263993750E0,-7.351444364E-1,8.652740717E-1,9.459164619E0
2.275993750E0,-5.983397365E-1,8.045092225E-1,9.398036003E0
2.285993750E0,-5.911666751E-1,7.675427794E-1,9.673053741E0
2.295996875E0,-4.822497070E-1,6.709415317E-1,9.368386269E0
2.306035937E0,-2.621555030E-1,7.207887769E-1,9.412947655E0
2.317993750E0,-2.232353687E-1,7.099095583E-1,9.429687500E0
2.329993750E0,-2.781487703E-1,8.444445133E-1,9.656974792E0
2.339993750E0,-2.990645170E-1,8.798978329E-1,9.803461075E0
2.349993750E0,-4.654327929E-1,9.151309133E-1,9.820325851E0
2.361993750E0,-5.925649405E-1,8.981320858E-1,9.432752609E0
2.371993750E0,-4.465569258E-1,7.755106688E-1,9.430501938E0
2.383992187E0,-5.471804142E-1,8.311997652E-1,9.535482407E0
2.393993750E0,-5.070823431E-1,8.211728334E-1,9.495163918E0
2.403993750E0,-4.817229509E-1,9.080249667E-1,9.337204933E0
2.415993750E0,-5.507333875E-1,1.098670363E0,9.355917931E0
2.425993750E0,-5.788125992E-1,1.026710272E0,9.340738297E0
2.435993750E0,-5.913391113E-1,9.732813239E-1,9.577649117E0
2.447993750E0,-7.956411242E-1,1.069394112E0,9.742638588E0
2.457993750E0,-8.529103994E-1,1.066549778E0,9.903949738E0
2.469992187E0,-5.949399471E-1,9.878859520E-1,9.999048233E0
2.479993750E0,-6.034058928E-1,1.087800741E0,9.781022072E0
2.489993750E0,-4.493820667E-1,1.116176844E0,9.820527077E0
2.501993750E0,-2.567637563E-1,1.009108186E0,9.736442566E0
2.511993750E0,-3.147992194E-1,9.619232416E-1,9.544217110E0
2.523992187E0,-3.178733885E-1,8.820430040E-1,1.019177151E1
2.533993750E0,-4.228160083E-1,8.821483850E-1,1.068625069E1
2.543993750E0,-6.662583947E-1,9.679278731E-1,1.014784241E1
2.555992187E0,-9.298600554E-1,1.095318556E0,1.018253994E1
2.565993750E0,-9.611187577E-1,1.102730989E0,1.105049515E1
2.575993750E0,-1.113045216E0,1.117996454E0,1.045668602E1
2.585993750E0,-8.418300748E-1,1.204819679E0,9.768017769E0
2.595993750E0,-6.488573551E-1,1.190473795E0,1.001447678E1
2.607993750E0,-6.801544428E-1,1.209627271E0,1.030168438E1
2.619993750E0,-5.509440899E-1,1.191881418E0,1.002742386E1
2.629993750E0,-5.169081688E-1,1.214951992E0,9.985937119E0
2.641992187E0,-4.225191474E-1,1.265833616E0,9.823514938E0
2.651993750E0,-2.860687971E-1,1.296948552E0,1.018835258E1
2.661993750E0,-6.337069273E-1,1.216484308E0,1.016283131E1
2.673993750E0,-5.315319300E-1,1.151170492E0,1.035616684E1
2.683993750E0,-4.225095510E-1,8.612326384E-1,1.040359211E1
2.693993750E0,-3.827083409E-1,7.664318085E-1,1.039767265E1
2.705993750E0,-3.119548857E-1,6.016724706E-1,1.055655289E1
2.715993750E0,-4.194737375E-1,4.323066473E-1,1.068214226E1
2.727992187E0,-5.652997494E-1,4.754788876E-1,1.051677990E1
2.737993750E0,-5.014990568E-1,4.693401456E-1,1.030908775E1
2.749992187E0,-3.951007426E-1,4.755842388E-1,1.049952221E1
2.759993750E0,-4.186213613E-1,5.443552732E-1,1.053169155E1
2.769993750E0,-5.553207397E-1,7.297718525E-1,1.045791149E1
2.779993750E0,-6.380547285E-1,8.562048078E-1,1.043272495E1
2.791993750E0,-5.390784144E-1,8.708382249E-1,1.003602409E1
2.801993750E0,-1.987570524E-1,7.885351181E-1,1.025694275E1
2.813992187E0,-2.158133388E-1,7.101489305E-1,9.943627357E0
2.823993750E0,-1.076241508E-1,6.114503741E-1,9.879568100E0
2.833993750E0,5.940493569E-2,3.288579583E-1,1.009043980E1
2.845993750E0,2.599815726E-1,7.982268184E-2,1.012180328E1
2.855993750E0,1.490150988E-1,-4.525998980E-2,9.827613831E0
2.865993750E0,1.317577064E-1,-8.937075734E-2,1.004665470E1
2.875993750E0,1.395915449E-1,-1.382507831E-1,1.026529312E1
2.887993750E0,-3.497450054E-2,-1.153047569E-2,1.017729187E1
2.899992187E0,-1.736179292E-1,5.357265845E-2,1.006715775E1
2.909993750E0,-2.319789827E-1,2.141373977E-2,9.911516190E0
2.921992187E0,-2.274491638E-1,-1.140980795E-1,9.794688225E0
2.931993750E0,-2.859059870E-1,-2.208507359E-1,9.870604515E0
2.941993750E0,-1.087159142E-1,-4.004254341E-1,9.899707794E0
2.951993750E0,7.856812328E-2,-5.158259869E-1,9.943311691E0
2.963993750E0,1.389020085E-1,-5.874509215E-1,1.026392365E1
2.973993750E0,1.273044944E-1,-5.537596941E-1,1.005153942E1
2.985992187E0,2.328217477E-1,-3.120411038E-1,9.902590752E0
2.995993750E0,2.043499053E-1,-2.301881313E-1,9.538969040E0
3.005993750E0,8.167100698E-2,-2.015630454E-1,9.113844872E0
3.017993750E0,1.411717087E-1,-1.639549285E-1,9.051729202E0
3.027993750E0,8.086655289E-2,-2.628546059E-1,9.077730179E0
3.037993750E0,1.613212973E-1,-3.661117554E-1,9.157514572E0
3.049993750E0,1.984410137E-1,-4.777964652E-1,9.051595688E0
3.061992187E0,2.634962797E-1,-4.565359354E-1,9.246751785E0
3.071992187E0,1.682166159E-1,-4.632110000E-1,9.322944641E0
3.081996875E0,1.175936162E-1,-4.034900069E-1,9.368587494E0
3.093992187E0,1.636389047E-1,-4.094659388E-1,9.334868431E0
3.103993750E0,1.720186025E-1,-3.856101334E-1,9.469709396E0
3.113993750E0,5.294058472E-2,-3.343646228E-1,9.689774513E0
3.124006250E0,4.548983183E-3,-3.089382052E-1,9.763746262E0
3.135993750E0,-8.766609430E-2,-3.142533302E-1,9.805443764E0
3.145993750E0,-1.798524335E-2,-2.759748399E-1,9.729930878E0
3.155993750E0,-2.546472847E-2,-2.438063473E-1,9.652808189E0
3.167993750E0,1.104876176E-1,-1.340944469E-1,9.665994644E0
3.177993750E0,1.060535610E-1,1.782243699E-2,9.504118919E0
3.189993750E0,7.090667635E-2,2.022813112E-1,9.339924812E0
3.199993750E0,7.490020990E-2,2.380506843E-1,9.485280991E0
3.209993750E0,9.258856624E-2,2.626534998E-1,9.432925224E0
3.221993750E0,9.410169721E-2,2.465357333E-1,9.310045242E0
3.231993750E0,1.557188779E-1,2.140512019E-1,9.582207680E0
3.243992187E0,3.048872054E-1,6.701849401E-2,9.631864548E0
3.253993750E0,2.681314349E-1,1.532289088E-1,9.364019394E0
3.263993750E0,3.109589219E-1,3.339049518E-1,9.073679924E0
3.275993750E0,4.040454626E-1,3.559507430E-1,9.209277153E0
3.285993750E0,4.187267125E-1,4.335899353E-1,9.327905655E0
3.297992187E0,3.885214925E-1,4.580299258E-1,9.325003624E0
3.307993750E0,3.838096857E-1,4.888385236E-1,9.482676506E0
3.317993750E0,4.195407331E-1,4.723185301E-1,9.732008934E0
3.329992187E0,4.081156254E-1,3.393158615E-1,9.950235367E0
3.339993750E0,4.734964967E-1,2.654307783E-1,1.014915562E1
3.349993750E0,4.154418707E-1,3.428975642E-1,1.001185226E1
3.361993750E0,3.608732224E-1,5.344528556E-1,1.006007099E1
3.371993750E0,2.891908288E-1,7.367724776E-1,1.014379215E1
3.383992187E0,1.093767062E-1,8.507364392E-1,9.992430687E0
3.393993750E0,3.575979546E-2,9.815939665E-1,9.955388069E0
3.403993750E0,8.537723869E-2,9.057073593E-1,1.003069019E1
3.415992187E0,1.592527181E-1,8.491563201E-1,9.997525215E0
3.425993750E0,1.991305351E-1,7.815248966E-1,9.973631859E0
3.435993750E0,3.025217652E-1,7.316775918E-1,9.724318504E0
3.445993750E0,2.963255644E-1,8.234521747E-1,9.569126129E0
3.457993750E0,2.522818148E-1,8.900780082E-1,9.520016670E0
3.469992187E0,2.155068815E-1,9.666349888E-1,9.577583313E0
3.479993750E0,8.775228262E-2,1.013858199E0,9.653737068E0
3.489993750E0,-1.157452837E-1,1.086603642E0,9.767107010E0
3.501993750E0,-3.025121689E-1,1.102166057E0,9.888522148E0
3.511993750E0,-3.056150377E-1,1.043259025E0,1.000444031E1
3.521993750E0,-2.247101963E-1,9.514365792E-1,1.003855228E1
3.533993750E0,-1.591378003E-1,8.662509322E-1,1.010325432E1
3.543993750E0,-4.871721566E-2,7.910825014E-1,1.023260784E1
3.555992187E0,-1.574235559E-1,8.176581860E-1,1.027225494E1
3.565993750E0,1.266628504E-1,8.028523922E-1,1.035202026E1
3.575993750E0,1.402331889E-1,8.112321496E-1,1.042050362E1
3.585993750E0,1.050001085E-1,8.316403031E-1,1.038707161E1
3.595993750E0,2.143480778E-1,8.739027977E-1,1.042215157E1
3.607993750E0,1.067526639E-1,9.800521135E-1,1.030632973E1
3.619993750E0,3.011905588E-2,1.077390790E0,1.032358646E1
3.629993750E0,-3.296336904E-2,1.119643688E0,1.022277260E1
3.641992187E0,-1.091947481E-1,1.139917731E0,1.016842365E1
3.651993750E0,-2.194142193E-1,1.137054324E0,1.027846050E1
3.661993750E0,-3.704596162E-1,1.073885679E0,1.042603016E1
3.673993750E0,-2.695488036E-1,8.620467186E-1,1.055242443E1
3.685992187E0,-1.147109941E-1,6.768025160E-1,1.068786049E1
3.695998437E0,-1.350329816E-2,4.729505777E-1,1.097125721E1
3.707992187E0,-3.395935893E-2,3.689177632E-1,1.098135090E1
3.717992187E0,-8.162312210E-2,3.236003220E-1,1.073638535E1
3.727992187E0,2.163400687E-2,2.575490773E-1,1.062399197E1
3.737993750E0,-4.096000269E-2,2.390562445E-1,1.045750046E1
3.747993750E0,-1.363545656E-1,3.216083348E-1,1.058036995E1
3.759993750E0,-5.327577516E-2,3.514113426E-1,1.046124458E1
3.769993750E0,1.819593366E-3,2.790010870E-1,1.070520401E1
3.779993750E0,1.918904781E-1,1.672972441E-1,1.085034943E1
3.791993750E0,2.708703876E-1,5.631162226E-2,1.089877033E1
3.803992187E0,2.606423497E-1,-3.068408929E-2,1.064988804E1
3.813992187E0,2.729772925E-1,-9.553822130E-2,1.039552879E1
3.823993750E0,1.426561177E-1,-1.080934256E-1,1.031963158E1
3.833993750E0,-2.965936996E-2,-1.191163287E-1,1.040625381E1
3.845993750E0,-1.087925285E-1,-1.387487799E-1,1.028432274E1
3.855993750E0,-1.512752324E-1,-1.655446738E-1,1.018084431E1
3.865993750E0,-1.886247844E-1,-2.258977145E-1,1.021759129E1
3.875993750E0,-2.256678790E-1,-3.491512239E-1,1.010065842E1
3.887993750E0,-2.893249094E-1,-5.819250941E-1,9.958768845E0
3.899992187E0,-4.887236059E-1,-7.304134369E-1,9.811716080E0
3.909993750E0,-5.838978887E-1,-7.883052826E-1,9.743050575E0
3.919993750E0,-6.899993420E-1,-7.718810439E-1,9.513360023E0
3.931993750E0,-8.527572155E-1,-5.735453963E-1,9.201434135E0
3.941993750E0,-6.643239260E-1,-5.144948363E-1,9.040275574E0
3.951993750E0,-5.337728858E-1,-5.181339979E-1,9.031857491E0
3.963993750E0,-3.821911812E-1,-5.114302039E-1,9.133410454E0
3.973993750E0,-2.222968489E-1,-5.182105899E-1,9.150457382E0
3.985992187E0,-1.420527846E-1,-5.302199125E-1,9.185967445E0
3.995993750E0,-9.456139058E-2,-5.178850293E-1,9.247011185E0
4.005993750E0,-6.675034016E-2,-5.179998875E-1,9.293247223E0
4.017993750E0,4.766377062E-2,-4.780933559E-1,9.431200981E0
4.027993750E0,5.236597732E-2,-4.443733990E-1,9.483336449E0
4.037993750E0,1.081125736E-1,-3.882437348E-1,9.385184288E0
4.049993750E0,1.112346128E-1,-3.302370310E-1,9.430243492E0
4.059993750E0,6.879977882E-2,-3.559028506E-1,9.509692192E0
4.069993750E0,5.200206302E-3,-3.261477351E-1,9.531460762E0
4.079993750E0,-1.538992859E-2,-2.767984569E-1,9.623349190E0
4.089993750E0,-1.666364260E-2,-2.189545333E-1,9.508869171E0
4.099993750E0,-5.813121796E-2,-1.354064792E-1,9.456905365E0
4.111992187E0,-1.147301495E-2,8.858546615E-3,9.452758789E0
4.121993750E0,1.101332833E-3,1.228704304E-1,9.237893105E0
4.133992187E0,-3.801992536E-2,2.956934869E-1,9.014523506E0
4.143992187E0,-6.062118709E-2,3.953306079E-1,9.008633614E0
4.153993750E0,-1.798045486E-1,4.735156298E-1,8.933398247E0
4.165992187E0,-3.512293994E-1,5.206047893E-1,8.890513420E0
4.175993750E0,-3.283791244E-1,5.344815850E-1,8.925209999E0
4.187992187E0,-2.740403116E-1,4.740998149E-1,8.921188354E0
4.197992187E0,-1.898601949E-1,3.921415210E-1,9.076246262E0
4.207993750E0,-6.856993772E-3,3.891918659E-1,9.257190704E0
4.219993750E0,4.871721566E-2,4.838681519E-1,9.480904579E0
4.231993750E0,8.923668414E-2,5.813121796E-1,9.759159088E0
4.243992187E0,2.442755997E-1,6.845597625E-1,9.971773148E0
4.253993750E0,1.796991974E-1,8.005635738E-1,9.841815948E0
4.263993750E0,6.828263402E-2,8.916773200E-1,9.630322456E0
4.275993750E0,-2.885491960E-2,9.486784935E-1,9.264076233E0
4.285993750E0,4.797022790E-2,9.671329856E-1,9.174638748E0
4.295993750E0,1.681687385E-1,9.262591600E-1,9.110654831E0
4.307993750E0,1.764143556E-1,9.969168901E-1,9.415945053E0
4.317993750E0,1.619150639E-1,1.034199357E0,9.767739296E0
4.329992187E0,1.893334687E-1,1.080014825E0,1.010643291E1
4.339993750E0,1.759642512E-1,1.052759290E0,1.019962502E1
4.349993750E0,9.209057689E-2,1.018905163E0,1.009762192E1
4.361993750E0,-2.320460230E-2,9.595289826E-1,1.005726528E1
4.371993750E0,-1.830127649E-2,9.494829178E-1,1.013331509E1
4.383992187E0,4.547068104E-2,1.079852104E0,1.010089779E1
4.393993750E0,6.753564626E-2,1.177995086E0,1.009719181E1
4.403993750E0,1.124795973E-1,1.251726985E0,1.025605202E1
4.415992187E0,5.974970013E-2,1.251803637E0,1.052106094E1
4.425993750E0,-6.697060913E-2,1.172842741E0,1.058400917E1
4.435993750E0,4.277959466E-2,1.012278080E0,1.060349846E1
4.445993750E0,-1.918234490E-2,8.299643397E-1,1.061567974E1
4.457993750E0,8.590395562E-3,7.541543841E-1,1.058338642E1
4.469992187E0,-1.056513265E-1,7.556483746E-1,1.036036205E1
4.479993750E0,-1.145386100E-1,8.495489359E-1,1.022008133E1
4.489993750E0,-7.478528470E-2,9.534668326E-1,1.002479076E1
4.501992187E0,-9.754935652E-2,1.051715374E0,1.005557060E1
4.511993750E0,-1.666364376E-3,1.087695479E0,1.026087761E1
4.521993750E0,6.204812974E-2,1.146439552E0,1.025400162E1
4.533993750E0,-8.331821300E-3,1.315565944E0,1.020009422E1
4.543993750E0,-1.329260785E-2,1.357406974E0,1.029094887E1
4.555992187E0,-1.149504110E-1,1.177746058E0,1.055880260E1
4.565993750E0,-1.840566546E-1,1.018119931E0,1.083768940E1
4.575993750E0,-1.770847291E-1,7.864665389E-1,1.115115738E1
4.585993750E0,-1.843535155E-2,6.723684669E-1,1.122654629E1
4.597993750E0,4.023216665E-1,3.509229422E-1,1.136616611E1
4.607993750E0,4.623969793E-1,2.490257174E-1,1.122052288E1
4.619993750E0,2.707746327E-1,2.027505785E-1,1.086682224E1
4.629993750E0,1.573660821E-1,1.588026136E-1,1.066537380E1
4.641992187E0,3.485957626E-3,9.581594914E-2,1.030996895E1
4.651993750E0,-9.796115756E-2,3.835510835E-2,1.014680862E1
4.661993750E0,-8.590395004E-2,-9.874644876E-2,1.005192184E1
4.673993750E0,-2.577118762E-2,-1.862976253E-1,1.027002430E1
4.683993750E0,-6.578309089E-2,-2.333867848E-1,1.042493820E1
4.693993750E0,2.227661014E-1,-1.763760597E-1,1.044635296E1
4.705993750E0,4.940770268E-1,-9.167876840E-2,1.022561646E1
4.715993750E0,4.626363814E-1,3.009032644E-2,9.795176506E0
4.727992187E0,2.792022526E-1,1.144524142E-1,9.468981743E0
4.737993750E0,8.541554213E-2,9.871772677E-2,9.530445099E0
4.747993750E0,-4.093126953E-2,1.040998939E-2,9.641316414E0
4.759993750E0,8.810661733E-2,-1.006426588E-1,9.728800774E0
4.769993750E0,3.169252574E-1,-2.060737312E-1,9.676090240E0
4.779993750E0,4.417685270E-1,-2.064184844E-1,9.502682686E0
4.791993750E0,6.219944358E-1,-2.332335562E-1,9.543220520E0
4.801993750E0,7.633385658E-1,-1.888546348E-1,9.619547844E0
4.813992187E0,8.043368459E-1,-1.084573343E-1,9.538767815E0
4.823993750E0,7.657998204E-1,-1.804270409E-2,9.502462387E0
4.833993750E0,6.662775874E-1,6.766971946E-2,9.263789177E0
4.845993750E0,4.421611726E-1,8.681374788E-2,9.174839973E0
4.855993750E0,3.949474990E-1,4.017470405E-2,9.176467896E0
4.865993750E0,2.835596502E-1,5.319916084E-2,9.241378784E0
4.875993750E0,2.994284332E-1,2.671929076E-3,9.302986145E0
4.887993750E0,1.806664616E-1,1.209550630E-2,9.545049667E0
4.899992187E0,1.298614889E-1,1.086009853E-2,1.041591740E1
4.909993750E0,7.829039544E-2,-4.637089744E-2,9.905635834E0
4.921992187E0,9.462842345E-2,3.999944627E-1,9.135603905E0
4.931993750E0,2.065812945E-1,3.795958757E-1,8.919742584E0
4.941993750E0,2.119730413E-1,4.930331707E-1,9.271881104E0
4.951993750E0,1.185608655E-1,5.044391751E-1,9.034664154E0
4.963993750E0,1.742500067E-1,5.329588652E-1,8.554636002E0
4.973993750E0,2.039572597E-1,4.956763685E-1,8.446331978E0
4.985992187E0,1.657074839E-1,3.231597543E-1,8.551647186E0
4.995993750E0,2.705256343E-1,1.441405118E-1,8.556943893E0
5.005993750E0,4.340879321E-1,-5.374504253E-2,9.065759659E0
5.017993750E0,3.520913124E-1,-2.210326865E-2,9.112149239E0
5.027993750E0,3.909827173E-1,8.669883013E-2,8.974512100E0
5.037993750E0,4.456471205E-1,2.083721608E-1,9.129771233E0
5.049993750E0,2.946591675E-1,4.196652472E-1,8.853480339E0
5.059993750E0,1.848994195E-1,6.494703293E-1,8.736259460E0
5.071992187E0,3.332441449E-1,7.260273099E-1,8.996452332E0
5.081993750E0,2.984133065E-1,6.890033484E-1,9.247431755E0
5.091993750E0,2.245569676E-1,6.750116348E-1,9.207956314E0
5.103993750E0,3.460004628E-1,7.168718576E-1,9.413943291E0
5.113993750E0,2.922554016E-1,8.180125356E-1,9.364152908E0
5.124006250E0,4.216763973E-1,9.375981688E-1,9.660182953E0
5.135993750E0,2.415845394E-1,1.126424074E0,9.678732872E0
5.145993750E0,3.187544346E-1,1.200299501E0,9.578262329E0
5.155993750E0,4.429847598E-1,1.249390244E0,9.695405960E0
5.165993750E0,1.662342101E-1,1.249610424E0,9.686450958E0
5.175993750E0,7.055233419E-2,1.212117314E0,9.890724182E0
5.187992187E0,6.275681406E-2,1.174365520E0,9.750223160E0
5.197992187E0,3.677493893E-3,1.241058350E0,9.917922974E0
5.207993750E0,5.845683068E-2,1.230887771E0,1.033967590E1
5.219992187E0,5.514325202E-2,1.302828908E0,1.041681767E1
5.229992187E0,1.086967513E-1,1.442209601E0,1.022530937E1
5.239992187E0,1.795268208E-1,1.378112078E0,1.055659103E1
5.249992187E0,8.021533489E-2,1.288798809E0,1.083215332E1
5.259993750E0,5.527732894E-2,1.152903914E0,1.081544209E1
5.269993750E0,1.707257330E-1,1.054176688E0,1.101158524E1
5.279993750E0,1.419091225E-1,9.988705516E-1,1.127858639E1
5.289993750E0,1.308096051E-1,9.625935555E-1,1.126543713E1
5.300035937E0,1.460654587E-1,1.005239129E0,1.116960239E1
5.311992187E0,5.924212560E-2,1.158132792E0,1.098649311E1
5.321992187E0,-8.025363833E-2,1.212442875E0,1.092030907E1
5.331992187E0,-2.900719047E-1,1.244917870E0,1.089091682E1
5.341992187E0,-4.358021915E-1,1.135474086E0,1.099083233E1
5.351992187E0,-4.817708433E-1,1.044360399E0,1.110678768E1
5.361993750E0,-3.460387588E-1,9.593662024E-1,1.131929684E1
5.371993750E0,-1.532576382E-1,9.458054304E-1,1.149658298E1
5.381993750E0,-3.491703793E-2,9.113959670E-1,1.160979939E1
5.393993750E0,-6.473921239E-3,7.952293158E-1,1.119423294E1
5.403993750E0,1.350904405E-1,6.795606017E-1,1.113344002E1
5.415992187E0,2.535363734E-1,4.271830320E-1,1.082106304E1
5.425993750E0,4.514219463E-1,2.154590040E-1,1.072141743E1
5.435993750E0,4.154897630E-1,1.286260933E-1,1.068679714E1
5.445998437E0,2.348520309E-1,1.976365596E-1,1.046113873E1
5.457993750E0,3.618117422E-2,3.454928994E-1,1.005624104E1
5.467993750E0,-9.467631578E-2,2.416994423E-1,1.028786564E1
5.479993750E0,-2.816060185E-1,-5.462610722E-2,1.021221828E1
5.489993750E0,-2.949847877E-1,-3.112941086E-1,1.026901817E1
5.501992187E0,-2.942952812E-1,-7.736048698E-1,1.101500416E1
5.511993750E0,-4.147810638E-1,-9.831358194E-1,1.055910969E1
5.521993750E0,-2.083147019E-1,-1.034065366E0,1.027183437E1
5.533993750E0,-1.155345961E-1,-1.052826285E0,1.028072166E1
5.543993750E0,-1.653052717E-1,-9.045868516E-1,9.968737602E0
5.555992187E0,-1.840087622E-1,-6.871262789E-1,9.652703285E0
5.565993750E0,-1.448683590E-1,-5.829784870E-1,9.574182510E0
5.575995312E0,-1.797566712E-1,-4.781412482E-1,9.518388748E0
5.587992187E0,-1.377910972E-1,-5.268680453E-1,9.066736221E0
5.597993750E0,3.256114200E-3,-4.629045427E-1,8.810978889E0
5.607993750E0,8.157524467E-2,-4.874594808E-1,8.764971733E0
5.617993750E0,1.526542902E-1,-4.769728780E-1,8.754025459E0
5.629993750E0,1.694232970E-1,-4.149151742E-1,8.723963737E0
5.641992187E0,9.561483562E-2,-2.501366138E-1,8.814004898E0
5.651993750E0,6.345592439E-2,-1.424933076E-1,8.716273308E0
5.661993750E0,7.700709999E-2,-7.852981798E-3,8.894315720E0
5.673992187E0,-1.359906606E-2,-7.833828032E-2,9.035659790E0
5.683993750E0,6.771759689E-2,-8.896853775E-3,9.059342384E0
5.693993750E0,3.332728753E-3,-5.496129766E-2,8.739085197E0
5.705993750E0,-9.720458649E-3,4.608359560E-2,8.789755821E0
5.715993750E0,9.509769082E-2,-3.820187971E-2,9.062426567E0
5.725993750E0,1.650466919E-1,1.593580656E-2,9.029386520E0
5.737993750E0,1.078252643E-1,1.243452579E-1,9.007964134E0
5.747993750E0,5.200206302E-3,2.539290190E-1,9.211432457E0
5.759992187E0,-2.253518403E-1,3.724420071E-1,9.315551758E0
5.769993750E0,-1.851388216E-1,4.071770906E-1,9.509108543E0
5.779993750E0,-1.560061872E-1,4.230841696E-1,9.551830292E0
5.789993750E0,-2.446969897E-1,5.598505139E-1,9.284101486E0
5.801992187E0,-3.282833695E-1,5.353339314E-1,8.982987404E0
5.811992187E0,-1.387200505E-1,6.072365642E-1,9.602492332E0
5.821992187E0,-3.150482178E-1,6.976416707E-1,8.732601166E0
5.831992187E0,-3.705649674E-1,9.218443036E-1,8.699820518E0
5.841992187E0,-4.137563407E-1,8.808076978E-1,8.853518486E0
5.851992187E0,-5.710650086E-1,9.726780057E-1,8.878485680E0
5.861993750E0,-5.895769596E-1,9.906344414E-1,9.203167915E0
5.871993750E0,-5.780465007E-1,1.020054460E0,9.245209694E0
5.883992187E0,-5.200588703E-1,1.189994931E0,8.930822372E0
5.893993750E0,-3.617255688E-1,1.224959850E0,9.053567886E0
5.903993750E0,-4.208527803E-1,1.228263736E0,9.306022644E0
5.913993750E0,-4.154801965E-1,1.223954201E0,9.515563011E0
5.925993750E0,-5.266860723E-1,1.307990670E0,9.343132973E0
5.935993750E0,-2.529521883E-1,1.305270910E0,9.849113464E0
5.947993750E0,-3.032878935E-1,1.382718563E0,9.920116425E0
5.957993750E0,-2.015534788E-1,1.468162894E0,1.017316437E1
5.967993750E0,-2.872084454E-2,1.495188594E0,1.041990089E1
5.979993750E0,-3.395935893E-2,1.450311661E0,1.040745163E1
5.989993750E0,-1.988240778E-1,1.361745358E0,1.059887218E1
6.001992187E0,-4.722419083E-1,1.229738593E0,1.062472916E1
6.011993750E0,-3.511240482E-1,1.170285821E0,1.085216904E1
6.021993750E0,-3.254294693E-1,1.027064681E0,1.082715416E1
6.033993750E0,-3.166762590E-1,9.371384382E-1,1.081334496E1
6.043993750E0,-2.503185868E-1,9.812683463E-1,1.088571644E1
6.053993750E0,-3.153163791E-1,1.053151846E0,1.074556065E1
6.065993750E0,-1.752076894E-1,1.133271456E0,1.056249046E1
6.075993750E0,-7.778282464E-2,1.252272844E0,1.045366859E1
6.087992187E0,1.115985289E-1,1.517895103E0,1.048198700E1
6.097993750E0,-1.683602668E-2,1.688295245E0,1.027089596E1
6.107993750E0,2.225171030E-1,1.709603667E0,1.023321056E1
6.119993750E0,2.948794663E-1,1.552783489E0,1.039361191E1
6.129993750E0,4.558751583E-1,1.276712894E0,1.097927284E1
6.141992187E0,7.424323559E-1,7.969531417E-1,1.139177418E1
6.151993750E0,9.693165421E-1,5.056074858E-1,1.149190903E1
6.161993750E0,8.965519667E-1,1.439777017E-1,1.109611893E1
6.173992187E0,7.709808350E-1,-2.768175900E-1,1.108668613E1
6.183993750E0,6.192650795E-1,-4.157387614E-1,1.097407246E1
6.193993750E0,4.385124147E-1,-4.690336883E-1,1.067250919E1
6.205993750E0,4.170507789E-1,-4.134882092E-1,1.059347057E1
6.215993750E0,2.539673448E-1,-3.031729758E-1,1.031355095E1
6.227992187E0,3.355904520E-1,-3.502908647E-1,1.031811905E1
6.237993750E0,2.051735073E-1,-3.031633794E-1,1.036119556E1
6.247993750E0,-1.679388881E-1,-1.536119878E-1,1.009294891E1
6.259992187E0,-1.845833808E-1,-3.268564120E-2,9.824281693E0
6.269993750E0,-1.598656327E-1,-8.073247969E-3,9.701228142E0
6.281992187E0,-1.927140802E-1,-5.883032084E-2,9.805654526E0
6.291993750E0,-2.990262210E-1,-1.718558073E-1,9.986435890E0
6.301993750E0,2.039859816E-2,-3.478392065E-1,1.011525249E1
6.313992187E0,4.765802026E-1,-4.112951458E-1,1.009627151E1
6.323993750E0,7.105128765E-1,-2.914701104E-1,9.971544266E0
6.333993750E0,8.789114356E-1,-1.804270297E-1,9.914149284E0
6.345992187E0,1.028721452E0,-7.263050228E-2,9.615860939E0
6.355993750E0,9.988705516E-1,2.514869533E-2,9.016190529E0
6.365993750E0,9.363818169E-1,7.218997180E-2,8.931559563E0
6.375993750E0,8.001517653E-1,1.697489023E-1,8.910242081E0
6.387993750E0,5.523614883E-1,1.246229857E-1,9.098780632E0
6.399992187E0,4.839447737E-1,9.106585383E-2,8.976742744E0
6.409993750E0,4.762450159E-1,7.085879147E-2,8.887467384E0
6.421992187E0,4.677408040E-1,4.127603490E-3,8.918468475E0
6.431993750E0,4.660265744E-1,4.807556979E-3,9.069609642E0
6.441993750E0,3.226617873E-1,-2.575203404E-2,9.201893806E0
6.451993750E0,1.248815581E-1,-2.617341280E-2,9.122828484E0
6.463993750E0,9.367074817E-2,4.361277819E-2,9.110397339E0
6.473993750E0,1.052586809E-1,9.151596576E-2,9.235307693E0
6.485992187E0,1.952710897E-1,2.372366637E-1,9.305974960E0
6.495993750E0,2.579895854E-1,3.056916893E-1,9.279360771E0
6.505993750E0,3.906666934E-1,3.432135880E-1,9.326363564E0
6.517993750E0,4.967872500E-1,2.545323670E-1,9.291743279E0
6.527993750E0,5.809578300E-1,2.474263757E-1,9.298294067E0
6.537996875E0,5.744838715E-1,1.738381982E-1,9.289511681E0
6.549993750E0,4.413184226E-1,1.854740083E-1,9.385997772E0
6.559993750E0,5.459641814E-1,2.975896895E-1,9.189779282E0
6.571992187E0,5.380920172E-1,3.899963200E-1,9.012646675E0
6.581993750E0,5.977842808E-1,5.553686023E-1,9.052285194E0
6.591993750E0,6.984364986E-1,6.372215748E-1,9.080124855E0
6.603993750E0,5.861293077E-1,6.902579069E-1,9.086981773E0
6.613993750E0,5.264658332E-1,6.450362802E-1,9.158492088E0
6.624006250E0,2.960574031E-1,5.861867666E-1,9.234043121E0
6.635993750E0,2.755725980E-1,4.895376265E-1,9.264526367E0
6.645993750E0,2.592633069E-1,4.661702216E-1,9.262812614E0
6.657992187E0,3.992187679E-1,5.378525853E-1,9.379227638E0
6.667993750E0,3.471783996E-1,6.944333911E-1,9.546380997E0
6.677993750E0,3.761578202E-1,9.209823608E-1,9.767807007E0
6.689993750E0,3.872669041E-1,1.094925880E0,9.717490196E0
6.699993750E0,3.708330989E-1,1.126500607E0,9.791508675E0
6.709993750E0,2.746149302E-1,1.117268562E0,9.867788315E0
6.721993750E0,3.328610957E-1,1.095931530E0,1.002560425E1
6.731993750E0,3.146843016E-1,1.064059854E0,1.007086468E1
6.743992187E0,3.666097522E-1,1.129957914E0,1.004130077E1
6.753993750E0,4.258039892E-1,1.229125738E0,1.021298409E1
6.763993750E0,3.899867237E-1,1.308258772E0,1.011791611E1
6.775993750E0,3.955317140E-1,1.402465940E0,1.031361675E1
6.785993750E0,3.238684535E-1,1.391414285E0,1.007221508E1
6.795993750E0,2.987101674E-1,1.428648949E0,1.033870888E1
6.807993750E0,2.084870934E-1,1.308603644E0,1.044418716E1
6.817993750E0,2.289527059E-1,1.186164141E0,1.055798912E1
6.829992187E0,3.077027798E-1,1.044571042E0,1.065619946E1
6.839993750E0,3.704308867E-1,9.956527352E-1,1.070366192E1
6.849993750E0,3.697700799E-1,1.000134587E0,1.084948826E1
6.861993750E0,1.899846941E-1,1.138644099E0,1.100912380E1
6.871993750E0,-6.445190869E-3,1.134602666E0,1.125150299E1
6.881993750E0,-3.202867210E-1,1.099024773E0,1.111826038E1
6.893993750E0,-3.516986370E-1,1.043488860E0,1.128365231E1
6.903993750E0,-2.757258415E-1,8.376641273E-1,1.135260582E1
6.915992187E0,-1.504229009E-1,7.537425756E-1,1.148930454E1
6.925993750E0,3.468719497E-2,5.604443550E-1,1.160342216E1
6.935993750E0,1.373122633E-1,4.217050970E-1,1.143757057E1
6.947993750E0,-1.197100803E-2,4.534139037E-1,1.082592869E1
6.957993750E0,1.325525790E-1,2.286366820E-1,1.066024017E1
6.967993750E0,2.340763062E-1,4.981854931E-2,1.055882263E1
6.979993750E0,3.969586641E-2,-8.381621540E-2,1.041172218E1
6.989993750E0,-1.430774946E-2,-2.344402373E-1,1.046875191E1
7.001992187E0,9.507853538E-2,-1.702851951E-1,1.075549126E1
7.011993750E0,2.031240612E-2,-1.794693619E-1,1.042038918E1
7.021993750E0,-5.267243832E-3,-1.205720007E-1,1.010172081E1
7.033993750E0,-4.254017770E-2,-2.140607983E-1,1.039367962E1
7.043993750E0,-4.821922258E-2,-3.652594090E-1,1.030520916E1
7.053993750E0,8.424717188E-2,-3.642346859E-1,1.010637474E1
7.065993750E0,2.930407226E-1,-3.658627570E-1,9.889518738E0
7.075993750E0,2.911732495E-1,-3.790021241E-1,9.554551125E0
7.085993750E0,4.228543341E-1,-4.477827549E-1,9.483586311E0
7.097993750E0,4.683824778E-1,-5.886000991E-1,9.573665619E0
7.107993750E0,3.682665527E-1,-6.109811664E-1,9.450698853E0
7.119993750E0,3.395265341E-1,-5.868188739E-1,9.305410385E0
7.129993750E0,1.460558772E-1,-5.686420202E-1,9.269400597E0
7.139993750E0,-1.149312556E-1,-4.301326871E-1,9.400315285E0
7.151993750E0,-2.205251306E-1,-3.190608919E-1,9.469067574E0
7.161993750E0,-2.135915160E-1,-1.663012505E-1,9.419440269E0
7.173992187E0,-3.092829883E-1,-3.857537732E-2,9.037124634E0
7.183993750E0,-1.051533371E-1,-5.522944778E-2,9.194156647E0
7.193993750E0,-2.681505866E-3,-7.885543257E-2,8.954573631E0
7.205993750E0,1.163677797E-1,-5.546886474E-2,8.775515556E0
7.215993750E0,8.582733572E-2,-7.843405008E-3,9.097094536E0
7.225993750E0,1.382890902E-2,-2.277364768E-2,9.279657364E0
7.237993750E0,-1.094628964E-2,6.361872703E-2,9.370427132E0
7.247993750E0,3.645890579E-2,1.211083010E-1,9.288745880E0
7.257993750E0,1.554315723E-2,1.964107305E-1,9.312314034E0
7.269993750E0,-4.960786086E-3,2.354745269E-1,8.947159767E0
7.281992187E0,1.124317124E-1,8.334694803E-2,9.129530907E0
7.291993750E0,1.409706026E-1,-3.568318114E-2,9.467679024E0
7.301993750E0,3.573106602E-2,-1.185608655E-2,9.729566574E0
7.313992187E0,8.609549142E-3,1.212423742E-1,9.322294235E0
7.323993750E0,2.341816574E-1,1.860677749E-1,9.284542084E0
7.333993750E0,1.783009917E-1,2.810601294E-1,9.264919281E0
7.345992187E0,2.762908638E-1,3.064195216E-1,9.490576744E0
7.355993750E0,2.269032896E-1,2.956168950E-1,9.479401588E0
7.365993750E0,7.186435908E-2,3.442479074E-1,9.306990623E0
7.375993750E0,6.832093745E-2,4.958104491E-1,9.251031876E0
7.387993750E0,4.359362274E-2,6.488765478E-1,9.131226540E0
7.399992187E0,-1.007480100E-1,7.843021750E-1,8.746766090E0
7.409993750E0,1.888546348E-2,8.872624040E-1,8.872412682E0
7.419993750E0,-1.941218786E-2,9.735206962E-1,8.721242905E0
7.431992187E0,-7.514920086E-2,8.672851920E-1,8.640540123E0
7.441993750E0,-9.897629917E-2,8.186062574E-1,9.002629280E0
7.451993750E0,-9.436985850E-2,7.908143997E-1,9.280548096E0
7.463993750E0,-3.620032966E-2,7.121505141E-1,9.773467064E0
7.473993750E0,-7.584831119E-2,7.685291767E-1,9.527313232E0
7.485992187E0,1.265000403E-1,8.481889963E-1,9.829778671E0
7.495993750E0,1.805994213E-1,8.897045255E-1,9.741134644E0
7.505993750E0,3.769431263E-2,9.536679983E-1,9.423193932E0
7.517992187E0,1.038413197E-1,1.114807367E0,9.513293266E0
7.527993750E0,-7.311891764E-2,1.260336518E0,9.684076309E0
7.537993750E0,-1.018014550E-1,1.381348968E0,9.907139778E0
7.549993750E0,-5.117845535E-2,1.538351178E0,1.015830040E1
7.559993750E0,4.689761996E-2,1.549422026E0,1.011597157E1
7.571992187E0,3.148088157E-1,1.294611931E0,1.052525616E1
7.581993750E0,2.549058795E-1,1.241910815E0,1.070420837E1
7.591993750E0,1.192120910E-1,1.030541062E0,1.076627541E1
7.603993750E0,7.177817076E-2,9.631107450E-1,1.095253372E1
7.613993750E0,-8.620083332E-2,8.810662031E-1,1.070906353E1
7.624007812E0,1.350712925E-1,9.182530046E-1,1.077302647E1
7.635993750E0,4.049265385E-1,9.121812582E-1,1.097632313E1
7.645993750E0,5.239662528E-1,8.906239271E-1,1.088261414E1
7.657993750E0,3.522732556E-1,1.144907236E0,1.074013996E1
7.667993750E0,2.999838889E-1,1.377403498E0,1.044820976E1
7.677993750E0,4.530787468E-1,1.644490957E0,1.069391251E1
7.689993750E0,2.948890328E-1,1.592431426E0,1.072171402E1
7.699993750E0,2.953965962E-1,1.389623404E0,1.104687500E1
7.709993750E0,3.326790929E-1,1.133577824E0,1.122844219E1
7.721993750E0,6.514144540E-1,8.845042586E-1,1.128558731E1
7.731993750E0,8.386792541E-1,7.441657782E-1,1.099056339E1
7.743992187E0,8.270338774E-1,4.961934984E-1,1.116128063E1
7.753993750E0,8.274648190E-1,1.425507665E-1,1.131925869E1
7.763993750E0,6.973830462E-1,-1.214913726E-1,1.139648628E1
7.775993750E0,6.242545843E-1,-2.930311263E-1,1.108436775E1
7.785993750E0,6.400371790E-1,-3.516891003E-1,1.099512196E1
7.795993750E0,5.534053445E-1,-3.708330989E-1,1.076120853E1
7.807993750E0,4.548600018E-1,-2.496865094E-1,1.054936981E1
7.817993750E0,2.499546558E-1,-1.999828815E-1,1.022523308E1
7.829992187E0,4.480030015E-2,-1.378102507E-2,9.594801903E0
7.839993750E0,-5.100607127E-2,1.113782637E-2,9.238468170E0
7.849993750E0,1.566382498E-1,-6.488286704E-2,9.365015984E0
7.861993750E0,1.150557548E-1,-8.146031946E-2,9.585196495E0
7.871993750E0,2.123369575E-1,-2.093873024E-1,9.890801430E0
7.881993750E0,2.605657578E-1,-3.682760894E-1,9.952782631E0
7.893993750E0,3.082678318E-1,-4.935407341E-1,9.764741898E0
7.903993750E0,5.710937381E-1,-6.142946482E-1,9.779547691E0
7.915992187E0,7.793126702E-1,-8.669500351E-1,9.980699539E0
7.925993750E0,8.509280682E-1,-8.434485197E-1,9.805424690E0
7.935993750E0,1.037896037E0,-6.731058955E-1,9.515486717E0
7.947993750E0,1.100068569E0,-4.890779555E-1,9.330587387E0
7.957993750E0,9.512929916E-1,-4.063056111E-1,9.131256104E0
7.967993750E0,7.565773129E-1,-2.897750139E-1,9.093369484E0
7.979993750E0,5.078197718E-1,-1.790671349E-1,9.049565315E0
7.989993750E0,3.766558170E-1,-1.131595448E-1,8.932019234E0
8.001992187E0,3.394690752E-1,-5.707777105E-3,8.949899673E0
8.011993750E0,1.318630576E-1,3.301125392E-2,8.898921967E0
8.021993750E0,1.717025787E-1,1.240866855E-1,8.955003738E0
8.033993750E0,2.362693995E-1,1.621161848E-1,9.163864136E0
8.043993750E0,1.842769235E-1,1.948114038E-1,9.236992836E0
8.053993750E0,2.385486811E-1,2.306765467E-1,8.966094017E0
8.065993750E0,4.884075522E-1,2.035454512E-1,9.531604767E0
8.075993750E0,5.138914585E-1,1.001063585E-1,9.492530823E0
8.087992187E0,4.100309610E-1,1.102769300E-1,8.717269897E0
8.097993750E0,5.676460862E-1,1.750448793E-1,9.065252304E0
8.107993750E0,6.293686032E-1,1.115889475E-1,9.444924355E0
8.119993750E0,5.640930533E-1,7.565677911E-2,9.207669258E0
8.129996875E0,5.873168111E-1,2.020802051E-1,9.291896820E0
8.141992187E0,6.113545895E-1,2.057960033E-1,9.525360107E0
8.151993750E0,5.900270343E-1,2.917095423E-1,9.671665192E0
8.161993750E0,4.036528468E-1,3.174232543E-1,9.782937050E0
8.173992187E0,5.311009288E-1,3.027132750E-1,9.263261795E0
8.183993750E0,5.181914568E-1,3.869221509E-1,8.863191605E0
8.193993750E0,3.384922445E-1,4.376313388E-1,9.042334557E0
8.205993750E0,2.316821069E-1,4.225766063E-1,9.003088951E0
8.215993750E0,6.372407079E-2,5.589886308E-1,8.825487137E0
8.225993750E0,4.770207778E-2,6.111534834E-1,9.208530426E0
8.237993750E0,-1.212711036E-1,8.700241446E-1,9.248676300E0
8.247993750E0,-1.039562374E-1,9.633980393E-1,8.999823570E0
8.259992187E0,6.737283617E-2,1.061464429E0,9.307391167E0
8.269993750E0,-1.593580656E-2,9.915059805E-1,9.349912643E0
8.279993750E0,-1.577300020E-2,9.138092995E-1,9.262466431E0
8.291993750E0,-3.483084589E-2,6.978619099E-1,9.628991127E0
8.301993750E0,-4.132392257E-2,6.353636384E-1,9.687150002E0
8.311993750E0,4.793957770E-1,5.269542336E-1,9.844430923E0
8.323993750E0,7.335738540E-1,5.868284106E-1,9.877423286E0
8.333993750E0,6.576967835E-1,7.840627432E-1,1.022813511E1
8.345992187E0,4.795202911E-1,1.035032630E0,1.013455963E1
8.355993750E0,2.902155519E-1,1.356813192E0,1.000246716E1
8.365993750E0,2.263765633E-1,1.501796484E0,1.022602844E1
8.375993750E0,2.091287225E-1,1.491376996E0,1.036275578E1
8.387993750E0,1.067239344E-1,1.418459058E0,1.018026066E1
8.397993750E0,2.071750611E-1,1.278762341E0,1.029901314E1
8.409993750E0,3.393541574E-1,1.102443695E0,1.042444038E1
8.419993750E0,4.385219812E-1,1.003812075E0,1.034799767E1
8.431992187E0,5.432826281E-1,9.833943844E-1,1.070259857E1
8.441993750E0,5.193981528E-1,9.156289101E-1,1.157745934E1
8.451993750E0,2.788383067E-1,9.241522551E-1,1.146727848E1
8.463993750E0,2.483457476E-1,1.066138029E0,1.114685726E1
8.473993750E0,2.942569554E-1,1.286950469E0,1.092442703E1
8.485992187E0,1.081029996E-1,1.383015394E0,1.087052822E1
8.495993750E0,-9.095093608E-2,1.198403358E0,1.085645962E1
8.505993750E0,-3.112558126E-1,1.110267997E0,1.099857044E1
8.515993750E0,-2.464016527E-1,1.015706539E0,1.129641819E1
8.527993750E0,-9.452308714E-2,9.768055677E-1,1.148207378E1
8.537993750E0,-1.599326730E-2,9.306548834E-1,1.139764595E1
8.549993750E0,8.960060030E-2,8.888042569E-1,1.121367455E1
8.559993750E0,-9.720458649E-3,8.498170972E-1,1.065927315E1
8.571992187E0,5.642654374E-2,7.779144049E-1,1.014876270E1
8.581993750E0,9.083601087E-2,5.074845552E-1,1.021837616E1
8.591993750E0,3.389998078E-1,3.275746703E-1,1.032237148E1
8.603992187E0,4.060949087E-1,1.045595780E-1,1.031543732E1
8.613993750E0,3.269234598E-1,3.478296101E-2,1.063984203E1
8.624006250E0,3.292219043E-1,7.091625035E-2,1.028138161E1
8.635993750E0,4.689762294E-1,6.798575073E-2,1.000869274E1
8.645993750E0,2.287515998E-1,-4.857356101E-2,1.008268261E1
8.657992187E0,1.358948797E-1,-2.407321930E-1,1.019510460E1
8.667993750E0,1.833671331E-1,-3.921127617E-1,1.005356979E1
8.677993750E0,2.939792573E-1,-4.477348626E-1,9.733042717E0
8.689992187E0,2.961052954E-1,-4.290409684E-1,9.631998062E0
8.699993750E0,3.768473566E-1,-4.870572388E-1,9.556982040E0
8.709993750E0,4.891928732E-1,-5.368087888E-1,9.526078224E0
8.721993750E0,3.933194578E-1,-5.283811688E-1,9.210389137E0
8.731993750E0,3.327653110E-1,-4.539981186E-1,9.058806419E0
8.743992187E0,8.386410028E-2,-4.824412167E-1,9.247086525E0
8.753993750E0,-9.026140720E-2,-4.668022990E-1,9.277857780E0
8.763993750E0,-1.955009252E-1,-4.276427329E-1,9.257899284E0
8.775993750E0,-3.289441466E-1,-4.158153832E-1,9.233152390E0
8.785993750E0,-2.928012908E-1,-3.020524979E-1,8.998769760E0
8.795993750E0,-2.673174143E-1,-2.426858693E-1,8.723169327E0
8.807993750E0,-2.175563276E-1,-1.086392999E-1,8.881645203E0
8.817993750E0,-2.363651693E-1,-5.512410030E-2,9.008021355E0
8.829992187E0,-3.288771510E-1,-4.009808972E-2,8.978189468E0
8.839993750E0,-2.493992001E-1,2.260126546E-2,9.218423843E0
8.849993750E0,-3.798544705E-1,-3.351882473E-2,9.216852188E0
8.861993750E0,-2.814719379E-1,-2.278322354E-2,9.535204887E0
8.871993750E0,-2.017928958E-1,-8.255207539E-2,9.610526085E0
8.881993750E0,-1.050671488E-1,-2.797385305E-2,9.570295334E0
8.893993750E0,6.291962415E-2,-6.933608092E-3,9.702387810E0
8.903993750E0,9.310571104E-2,3.169922903E-2,9.645194054E0
8.915992187E0,2.103545666E-1,1.647210717E-1,9.864149094E0
8.925993750E0,1.773145795E-1,1.915169805E-1,1.006422710E1
8.935993750E0,1.606988162E-2,2.968618572E-1,9.834825516E0
8.945993750E0,-8.557834476E-2,2.975130975E-1,9.478702545E0
8.957993750E0,-3.351882473E-2,4.005212188E-1,9.290939331E0
8.967993750E0,-9.134358168E-2,4.455322027E-1,9.253044128E0
8.979993750E0,-9.572018683E-2,5.415588617E-1,9.215799332E0
8.989993750E0,-2.511038817E-2,6.708457470E-1,9.011526108E0
9.001992187E0,-1.313076019E-1,7.895598412E-1,8.910069466E0
9.011993750E0,-4.478114843E-2,8.793902397E-1,8.968172073E0
9.021993750E0,-3.520434350E-2,7.769280672E-1,9.076514244E0
9.033993750E0,-3.199611232E-2,7.295132279E-1,9.056221008E0
9.043993750E0,1.231960431E-1,6.148884296E-1,9.054334641E0
9.053993750E0,-7.138551772E-2,6.185180545E-1,9.026810646E0
9.065993750E0,-1.427231431E-1,7.389272451E-1,9.039031029E0
9.075993750E0,-1.043967754E-1,7.766119838E-1,9.173182487E0
9.085993750E0,-6.913497299E-2,9.456234574E-1,9.188055992E0
9.097993750E0,-6.331226975E-2,1.099915385E0,9.204336166E0
9.107993750E0,7.497682422E-2,1.126816630E0,9.624000549E0
9.119993750E0,-2.638410218E-2,1.132677555E0,9.739210129E0
9.129993750E0,-2.492842823E-2,1.196736932E0,9.908672333E0
9.139993750E0,1.536885947E-1,1.157002807E0,9.738550186E0
9.151993750E0,2.307723016E-1,1.236250877E0,9.923890114E0
9.161993750E0,3.292984962E-1,1.303384304E0,1.058032227E1
9.173992187E0,3.911742568E-1,1.480919123E0,1.058292675E1
9.183993750E0,2.989496291E-1,1.619495511E0,1.045055676E1
9.195992187E0,1.970523894E-1,1.607294679E0,1.050407124E1
9.205993750E0,1.824573278E-1,1.479578376E0,1.044305801E1
9.215993750E0,1.125179082E-1,1.289718151E0,1.077018261E1
9.225993750E0,1.850622147E-1,1.133673668E0,1.074768639E1
9.237993750E0,1.566861421E-1,1.053487062E0,1.020213413E1
9.249992187E0,3.643304706E-1,1.053439260E0,1.044986725E1
9.259992187E0,4.049552679E-1,9.679086804E-1,1.128064537E1
9.269993750E0,1.836256832E-1,1.069212198E0,1.101404572E1
9.279993750E0,2.002701908E-1,1.267279625E0,1.048581791E1
9.289993750E0,3.687262237E-1,1.457819819E0,1.068244934E1
9.301993750E0,1.983260959E-1,1.619677544E0,1.080860424E1
9.311993750E0,1.398022324E-1,1.733382940E0,1.062438488E1
9.323993750E0,1.958840042E-1,1.773174524E0,1.060879421E1
9.333993750E0,2.250932604E-1,1.565702558E0,1.065227222E1
9.345992187E0,4.814547896E-1,1.252454877E0,1.113262558E1
9.355993750E0,6.430538297E-1,1.010563731E0,1.106475449E1
9.365993750E0,6.752415299E-1,6.362255812E-1,1.116048527E1
9.375993750E0,7.509748340E-1,3.135733902E-1,1.145192719E1
9.387993750E0,7.845703363E-1,-1.015045792E-1,1.112647724E1
9.397993750E0,6.606177092E-1,-1.790862828E-1,1.104530430E1
9.409993750E0,6.063363552E-1,-2.872276008E-1,1.108379364E1
9.419993750E0,4.600506723E-1,-3.487872779E-1,1.091568279E1
9.431992187E0,4.875552356E-1,-2.814815044E-1,1.074294662E1
9.441993750E0,4.756895900E-1,-2.245474011E-1,1.008194542E1
9.451993750E0,3.778720796E-1,-1.289229691E-1,9.983831406E0
9.463993750E0,2.131797224E-1,-5.587109178E-2,1.008031750E1
9.473993750E0,4.324885830E-2,5.932832137E-2,9.817299843E0
9.483993750E0,-1.301775426E-1,6.785167754E-2,9.450124741E0
9.495993750E0,-8.172847331E-2,5.547844246E-2,9.290595055E0
9.505993750E0,4.570052400E-2,-3.869029926E-3,9.760336876E0
9.517992187E0,8.569326997E-2,-3.914807141E-1,9.800376892E0
9.527993750E0,3.232172132E-1,-5.566423535E-1,9.582342148E0
9.537993750E0,6.756437421E-1,-6.856035590E-1,9.513015747E0
9.549993750E0,8.156470060E-1,-7.307486534E-1,9.540674210E0
9.559993750E0,8.577371240E-1,-6.208643913E-1,9.453448296E0
9.569993750E0,9.187318087E-1,-5.439147353E-1,9.310791969E0
9.581993750E0,8.742954135E-1,-4.480987787E-1,9.134396553E0
9.591993750E0,7.718044519E-1,-4.103374183E-1,9.217293739E0
9.603992187E0,6.343389153E-1,-2.961531579E-1,9.242068291E0
9.613993750E0,5.899217129E-1,-2.778040171E-1,9.320158005E0
9.624006250E0,4.537682533E-1,-2.472157031E-1,9.440778732E0
9.635993750E0,3.560082018E-1,-1.267011613E-1,9.334657669E0
9.645995312E0,3.581342697E-1,-2.338656224E-2,9.385308266E0
9.657992187E0,1.118762568E-1,7.422025502E-2,9.033351898E0
9.667993750E0,2.064759657E-2,1.351670474E-1,9.030958176E0
9.677993750E0,-4.788403213E-2,1.800248176E-1,8.952945709E0
9.689993750E0,-2.512858212E-1,2.423889786E-1,8.606245041E0
9.699993750E0,-1.494364887E-1,3.222499788E-1,8.927747726E0
9.709993750E0,-8.364383131E-2,3.058449030E-1,9.169322968E0
9.721993750E0,2.078167163E-2,3.878319263E-1,9.035803795E0
9.731993750E0,1.520413756E-1,3.769144118E-1,9.001470566E0
9.743992187E0,4.839160666E-2,4.656817913E-1,9.062887192E0
9.753993750E0,5.137956887E-2,4.171944261E-1,9.196415901E0
9.763993750E0,1.120294854E-1,3.072526753E-1,9.192288399E0
9.775993750E0,2.222202271E-1,2.361066043E-1,9.247623444E0
9.785993750E0,3.312329948E-1,1.600667387E-1,9.346551895E0
9.795993750E0,2.613031566E-1,2.293836772E-1,9.200246811E0
9.805993750E0,2.332144082E-1,3.105950058E-1,9.176228523E0
9.817996875E0,1.704575866E-1,4.079911113E-1,9.101107597E0
9.829992187E0,9.029971063E-2,5.220605135E-1,9.746278763E0
9.839993750E0,-2.337698638E-2,6.351817250E-1,9.661666870E0
9.849993750E0,-3.415089473E-2,7.303081155E-1,9.512738228E0
9.861992187E0,7.096414268E-2,7.573722005E-1,9.530321121E0
9.871993750E0,-2.363555878E-2,7.719480395E-1,9.282329559E0
9.881993750E0,1.292006969E-1,7.404786944E-1,9.321909904E0
9.893993750E0,3.239163458E-1,7.634247541E-1,9.248437881E0
9.903993750E0,1.738956571E-1,8.578424454E-1,9.115530014E0
9.915992187E0,1.112920716E-1,1.031355143E0,9.475234985E0
9.925993750E0,7.206546515E-2,1.196363449E0,9.781635284E0
9.935993750E0,-6.617573649E-2,1.443378091E0,9.885515213E0
9.947993750E0,-8.714894205E-2,1.523306012E0,9.854151726E0
9.957993750E0,-7.240065932E-2,1.535765529E0,9.720094681E0
9.967993750E0,-1.019642651E-1,1.464255452E0,9.719807625E0
9.979993750E0,-4.155376554E-2,1.325123668E0,9.917051315E0
9.989993750E0,1.725740544E-2,1.172928929E0,1.016471767E1
1.000199219E1,3.486915305E-2,1.096764684E0,1.041349411E1
1.001199375E1,2.946783416E-2,1.063935280E0,1.069163418E1
1.002199375E1,5.737464875E-2,1.074316621E0,1.096630573E1
1.003399375E1,6.104256958E-2,1.138940930E0,1.105347347E1
1.004399375E1,3.441904485E-2,1.152463436E0,1.114688587E1
1.005399375E1,5.273947492E-2,1.109942436E0,1.109612846E1
1.006599375E1,1.804461926E-1,1.080005288E0,1.098446274E1
1.007599375E1,2.528181076E-1,1.074038982E0,1.101654625E1
1.008799219E1,1.689636111E-1,1.191565394E0,1.099759293E1
1.009799375E1,1.619629562E-1,1.265536785E0,1.077715397E1
1.010999219E1,-7.166324556E-2,1.295770645E0,1.073722839E1
1.011999375E1,-2.386157215E-1,1.148747563E0,1.092330551E1
1.012999375E1,-1.749012321E-1,1.050633192E0,1.118578720E1
1.013999375E1,-5.537309498E-2,9.385270476E-1,1.144379616E1
1.015199375E1,5.195417628E-2,8.553812504E-1,1.138804913E1
1.016199375E1,8.304049075E-2,7.503811121E-1,1.120552444E1
1.017399219E1,1.101141274E-1,5.687857270E-1,1.110866547E1
1.018399375E1,8.267657459E-2,4.154706001E-1,1.103106403E1
1.019399375E1,6.452852488E-2,2.609296739E-1,1.082009697E1
1.020599531E1,3.131232560E-1,-1.436521020E-2,1.076226234E1
1.021799219E1,5.369428396E-1,-3.002041578E-1,1.046478748E1
1.022799219E1,6.987908483E-1,-4.493150413E-1,1.037340546E1
1.023799375E1,6.818974018E-1,-5.013841391E-1,1.032958221E1
1.024799375E1,6.028599739E-1,-5.232288241E-1,1.045367908E1
1.025999219E1,4.388284385E-1,-4.193396270E-1,1.024055576E1
1.026999375E1,2.038519084E-1,-3.015927970E-1,1.002625561E1
1.027999375E1,-8.247546107E-2,-1.981824338E-1,9.786596298E0
1.029003594E1,-2.076538950E-1,-2.103258371E-1,9.589428902E0
1.030199375E1,-1.716834158E-1,-3.087083697E-1,9.303772926E0
1.031199375E1,-1.285782009E-1,-3.418154120E-1,9.106595039E0
1.032399375E1,-6.432741135E-2,-4.008468390E-1,8.858182907E0
1.033399375E1,-2.615425922E-2,-4.742817581E-1,8.903183937E0
1.034599531E1,4.753926769E-2,-5.275767446E-1,9.122023582E0
1.035799219E1,-1.905784593E-3,-5.129337907E-1,9.315474510E0
1.036799219E1,-8.940906823E-2,-4.263977408E-1,9.378671646E0
1.037799375E1,-2.289048284E-1,-2.174701244E-1,9.283718109E0
1.038799375E1,-3.863762915E-1,-8.240842074E-2,9.254096985E0
1.039799375E1,-3.891152442E-1,1.034295186E-2,9.416174889E0
1.040799375E1,-3.380517066E-1,9.563399851E-2,9.171765327E0
1.041999375E1,-3.914711177E-1,1.069154739E-1,8.880064964E0
1.043199219E1,-2.003563643E-1,9.184157476E-3,8.922472000E0
1.044199375E1,5.931873992E-2,-1.125274785E-2,8.904610634E0
1.045199375E1,1.320354342E-1,7.626969367E-2,8.900416374E0
1.046399375E1,2.916712463E-1,1.519073099E-1,8.950714111E0
1.047399375E1,2.170104384E-1,2.810026407E-1,8.890886307E0
1.048599375E1,-1.327058077E-1,3.844226003E-1,9.081876755E0
1.049599375E1,-1.730720550E-1,3.428209424E-1,9.355286598E0
1.050599375E1,-2.545994222E-1,2.314043939E-1,9.510937691E0
1.051799219E1,-2.388168275E-1,1.520413756E-1,9.606417656E0
1.052799375E1,-9.422620386E-2,1.502600964E-2,9.843070030E0
1.053799375E1,-6.572562456E-2,7.460332476E-3,9.807368279E0
1.054999375E1,4.958870634E-2,9.110416472E-2,9.660698891E0
1.055999375E1,1.246900260E-1,2.166369408E-1,9.591670036E0
1.056999375E1,1.387679279E-1,3.829573393E-1,9.547185898E0
1.058199375E1,-2.616383508E-2,5.564986467E-1,9.622440338E0
1.059199375E1,-2.124901861E-1,7.098424435E-1,9.527352333E0
1.060399219E1,-3.484042287E-1,8.011860847E-1,9.087230682E0
1.061399375E1,-3.661404848E-1,8.221975565E-1,8.971610069E0
1.062400625E1,-2.862028778E-1,7.555717826E-1,9.058481216E0
1.063599375E1,-2.057960033E-1,6.806140542E-1,9.104249001E0
1.064599375E1,-8.804916590E-2,5.886958838E-1,9.182960510E0
1.065599375E1,-6.713341922E-3,5.219168067E-1,9.143131256E0
1.066599375E1,1.244506091E-1,5.201163888E-1,9.227560043E0
1.067599375E1,7.670064270E-2,5.864932537E-1,9.365350723E0
1.068799219E1,-1.023377627E-1,6.688345671E-1,9.318807602E0
1.069799219E1,-1.210891455E-1,6.965116262E-1,9.611321449E0
1.070799219E1,-1.202176586E-1,7.479965091E-1,9.685896873E0
1.071799219E1,-7.382760942E-2,8.195065260E-1,9.512632370E0
1.072799219E1,-2.646071650E-2,9.692111611E-1,9.378289223E0
1.073799375E1,-5.278735608E-2,1.125743985E0,9.444378853E0
1.074799375E1,-1.232726574E-1,1.220592737E0,9.591411591E0
1.075999219E1,-1.691359878E-1,1.320134044E0,9.667183876E0
1.076999375E1,-1.856655627E-1,1.313545346E0,9.769587517E0
1.077999375E1,-2.505579889E-1,1.333599091E0,9.919349670E0
1.079199375E1,-2.269032896E-1,1.327939153E0,9.995141029E0
1.080199375E1,-2.194142193E-1,1.288789153E0,1.001531887E1
1.081199375E1,-2.793937624E-1,1.229719520E0,1.008506775E1
1.082199375E1,-3.549356163E-1,1.188855171E0,1.008859158E1
1.083399375E1,-4.189757109E-1,1.133846045E0,1.030086136E1
1.084400000E1,-4.715524018E-1,1.109262347E0,1.048909378E1
1.085599375E1,-3.782934546E-1,1.118121028E0,1.056040192E1
1.086599375E1,-1.817294955E-1,1.160278082E0,1.067513275E1
1.087599375E1,-5.416642129E-2,1.191326022E0,1.093958569E1
1.088799375E1,7.483316958E-2,1.244247437E0,1.128188133E1
1.089799375E1,1.521371454E-1,1.315345645E0,1.120416546E1
1.090999375E1,2.767314017E-1,1.520318151E0,1.084689236E1
1.091999375E1,3.032783270E-1,1.556068301E0,1.081829548E1
1.093199219E1,4.017662108E-1,1.418085694E0,1.104181862E1
1.094199375E1,4.129710793E-1,1.176759720E0,1.123710918E1
1.095199375E1,3.785903454E-1,8.860844970E-1,1.160477257E1
1.096199375E1,3.755353391E-1,5.874413252E-1,1.165896797E1
1.097399375E1,4.019673169E-1,1.800439656E-1,1.171795082E1
1.098399375E1,2.687060535E-1,-1.425699145E-1,1.160495377E1
1.099599375E1,1.617905796E-1,-3.480403125E-1,1.162640667E1
1.100599375E1,1.046649218E-1,-4.509431124E-1,1.160721397E1
1.101799219E1,1.511124372E-1,-4.379377961E-1,1.125926018E1
1.102799375E1,2.797672451E-1,-3.266840279E-1,1.089589787E1
1.103799375E1,3.729495704E-1,-2.589760125E-1,1.049714756E1
1.104999375E1,5.740912557E-1,-2.442660332E-1,1.042178822E1
1.105999375E1,7.205014825E-1,-2.384624928E-1,1.022263813E1
1.106999375E1,6.896354556E-1,-1.721909791E-1,9.924790382E0
1.108199375E1,7.791019678E-1,-1.183405966E-1,9.687648773E0
1.109199375E1,6.543161869E-1,-1.183789074E-1,9.488489151E0
1.110399219E1,3.942771256E-1,-1.391510069E-1,9.328460693E0
1.111399375E1,3.477242589E-1,-1.758876294E-1,9.374573708E0
1.112400625E1,3.196163774E-1,-1.795842797E-1,9.368559837E0
1.113599375E1,4.194066823E-1,-1.926566213E-1,9.211278915E0
1.114599375E1,6.729430556E-1,-2.786372006E-1,9.380942345E0
1.115599375E1,8.343218565E-1,-3.371514976E-1,9.453678131E0
1.116799375E1,9.870335460E-1,-3.928022981E-1,9.352460861E0
1.117799375E1,1.089237332E0,-3.840778470E-1,9.370292664E0
1.118799375E1,1.004195213E0,-3.981174231E-1,9.409585953E0
1.119999375E1,8.462545276E-1,-4.152982235E-1,9.376593590E0
1.120999375E1,7.229435444E-1,-4.436743259E-1,9.490758896E0
1.122199375E1,5.067471862E-1,-4.741381109E-1,9.418138504E0
1.123199375E1,4.614488482E-1,-4.425346553E-1,9.455650330E0
1.124199375E1,5.156918764E-1,-4.497843087E-1,9.443584442E0
1.125399375E1,5.476784110E-1,-4.110269845E-1,9.421337128E0
1.126399375E1,4.630098939E-1,-3.385592699E-1,9.369717598E0
1.127599375E1,4.610944986E-1,-1.822178960E-1,9.221248627E0
1.128599375E1,2.961340249E-1,1.300530322E-2,9.177874565E0
1.129599375E1,1.075379625E-1,2.389413267E-1,9.108481407E0
1.130799375E1,6.283342838E-2,4.320863783E-1,8.953691483E0
1.131799375E1,6.645346433E-2,4.995166659E-1,8.773274422E0
1.132799375E1,1.074804962E-1,5.210835934E-1,8.663619995E0
1.133999375E1,1.170860380E-1,4.834946692E-1,8.658543587E0
1.134999375E1,2.152483016E-1,3.604614139E-1,8.834049225E0
1.136199219E1,3.104034662E-1,3.134488761E-1,9.007677078E0
1.137199375E1,3.224031925E-1,2.429827452E-1,8.960232735E0
1.138199375E1,2.809356451E-1,1.855027527E-1,9.084741592E0
1.139399375E1,3.023972511E-1,1.205336899E-1,9.402049065E0
1.140399375E1,2.767122388E-1,1.348893344E-1,9.456387520E0
1.141599219E1,1.838363856E-1,1.247474849E-1,9.427514076E0
1.142599375E1,2.440936565E-1,1.607850045E-1,9.322543144E0
1.143599375E1,2.877351642E-1,2.118676901E-1,9.268874168E0
1.144799375E1,2.918723524E-1,2.690604031E-1,9.180739403E0
1.145799375E1,3.015449345E-1,3.411066830E-1,9.211432457E0
1.146799375E1,2.419197261E-1,4.691677690E-1,9.313559532E0
1.147999375E1,1.337688416E-1,6.147543788E-1,9.363473892E0
1.148999375E1,1.286260933E-1,7.293025255E-1,9.354586601E0
1.150199219E1,1.132648960E-1,7.855950594E-1,9.483011246E0
1.151199375E1,1.696818769E-1,8.221113682E-1,9.489850044E0
1.152199375E1,3.106045723E-1,8.429313898E-1,9.510851860E0
1.153399219E1,3.882533312E-1,7.910538316E-1,9.516252518E0
1.154399219E1,4.857930839E-1,8.050167561E-1,9.568915367E0
1.155399375E1,5.070919394E-1,7.918487191E-1,9.680437088E0
1.156599375E1,4.342315793E-1,8.986875415E-1,9.907732964E0
1.157599375E1,2.301881313E-1,1.016491771E0,1.001386356E1
1.158599375E1,4.854483530E-2,1.120237470E0,1.008535480E1
1.159799375E1,-6.903920323E-2,1.218093276E0,1.024835110E1
1.160799375E1,-7.420109212E-2,1.199629188E0,1.028158283E1
1.161999219E1,-4.009808972E-2,1.134985685E0,1.020327377E1
1.162999375E1,9.210972488E-2,1.119270086E0,1.024073792E1
1.163999375E1,1.701798588E-1,9.182530046E-1,1.022219753E1
1.165199375E1,3.489022255E-1,7.543842196E-1,1.043776131E1
1.166199375E1,6.306997538E-1,6.294164658E-1,1.066457939E1
1.167199375E1,7.011180520E-1,5.974012017E-1,1.082561302E1
1.168399375E1,5.150023699E-1,6.845310330E-1,1.110587788E1
1.169399375E1,4.142447710E-1,7.928829789E-1,1.122395039E1
1.170599375E1,2.648369968E-1,9.395613670E-1,1.112919712E1
1.171599375E1,1.157835945E-1,1.084860682E0,1.098993206E1
1.172599375E1,3.386358917E-2,1.133779049E0,1.072319794E1
1.173599375E1,3.535757214E-2,1.025082231E0,1.055822849E1
1.174599531E1,-2.279279986E-3,8.729259372E-1,1.056076622E1
1.175799219E1,-9.352709353E-2,7.006775141E-1,1.102954102E1
1.176799375E1,-6.430825591E-2,6.051201224E-1,1.160205269E1
1.177999375E1,-9.050082415E-2,5.321065784E-1,1.178478718E1
1.179199375E1,-1.067143530E-1,4.147331715E-1,1.150294209E1
1.180199375E1,-2.030282980E-3,2.230534106E-1,1.126512146E1
1.181199375E1,1.768357456E-1,1.359906606E-2,1.107306862E1
1.182399375E1,2.271139622E-1,-2.011704147E-1,1.091411209E1
1.183399375E1,3.656328917E-1,-3.657382429E-1,1.077945232E1
1.184599219E1,4.530499876E-1,-5.732868314E-1,1.071167755E1
1.185599375E1,4.684973657E-1,-5.582224727E-1,1.061741352E1
1.186599375E1,4.934545457E-1,-5.249909759E-1,1.042131805E1
1.187599375E1,5.483488441E-1,-4.403128326E-1,1.022443867E1
1.188799375E1,3.519763649E-1,-3.146172464E-1,1.003814030E1
1.189799375E1,2.804855108E-1,-2.773443162E-1,1.000569439E1
1.190999375E1,1.602870226E-1,-3.864911795E-1,9.751287460E0
1.191999375E1,1.392371953E-1,-4.709107280E-1,9.544226646E0
1.193199219E1,8.946652710E-2,-6.068056226E-1,9.254882812E0
1.194199375E1,4.797980189E-2,-6.846746206E-1,8.869310379E0
1.195199375E1,3.741658479E-2,-7.601015568E-1,8.703468323E0
1.196399375E1,-4.577713832E-2,-8.256643414E-1,8.852799416E0
1.197399375E1,-1.315949112E-1,-8.380759358E-1,9.069992065E0
1.198399375E1,-3.237535357E-1,-8.516558409E-1,9.228824615E0
1.199599375E1,-5.681440234E-1,-7.297335267E-1,9.379858971E0
1.200599375E1,-6.581085920E-1,-5.916646719E-1,9.483424187E0
1.201799219E1,-6.013851166E-1,-5.069865584E-1,9.483078003E0
1.202799375E1,-5.549855232E-1,-3.670215309E-1,9.329371452E0
1.203799375E1,-4.717343450E-1,-2.583726943E-1,9.069503784E0
1.204999375E1,-2.963159680E-1,-2.603071928E-1,9.151567459E0
1.205999375E1,-1.769985557E-1,-2.573288083E-1,9.297528267E0
1.206999375E1,-3.821145976E-3,-2.184469551E-1,9.310858727E0
1.208199375E1,1.232822314E-1,-1.746905297E-1,9.406617165E0
1.209199375E1,1.566669792E-1,-1.383561194E-1,9.520303726E0
1.210399219E1,1.874085367E-1,-1.094916314E-1,9.600663185E0
1.211399375E1,6.918285042E-2,-9.279925376E-2,9.601227760E0
1.212400625E1,-2.358767577E-2,-9.323979169E-2,9.648038864E0
1.213599375E1,1.733593643E-1,-1.314608306E-1,9.687791824E0
1.214599375E1,2.486234754E-1,-1.097310483E-1,9.582648277E0
1.215599375E1,2.384912223E-1,-6.699934602E-2,9.449501991E0
1.216799375E1,2.567829192E-1,-3.301125392E-2,9.443392754E0
1.217799375E1,2.374281883E-1,-2.919968404E-2,9.575130463E0
1.218999219E1,1.731390804E-1,8.263827115E-2,9.426728249E0
1.219999375E1,1.619916856E-1,2.346700728E-1,9.297030449E0
1.220999375E1,5.554547906E-2,3.557687998E-1,9.296550751E0
1.222199375E1,-8.704359084E-2,4.737263322E-1,9.274927139E0
1.223199375E1,-9.232041426E-3,5.341560245E-1,9.242423058E0
1.224199375E1,9.791327268E-2,4.874020219E-1,9.213606834E0
1.225399375E1,8.034940809E-2,3.748553693E-1,9.153310776E0
1.226399375E1,1.101332754E-1,3.002807796E-1,9.183917999E0
1.227599219E1,4.426399991E-2,2.060928792E-1,9.283594131E0
1.228603594E1,2.432508860E-3,1.995136142E-1,9.327436447E0
1.229799219E1,-1.139640063E-2,3.097905517E-1,9.262189865E0
1.230799375E1,4.443638399E-2,4.729314446E-1,9.239186287E0
1.231799375E1,-1.960372366E-2,6.122452617E-1,9.261816025E0
1.232799375E1,-2.193088876E-3,6.603878736E-1,9.387089729E0
1.233999375E1,8.669883013E-2,6.412630081E-1,9.421653748E0
1.234999375E1,1.246708706E-1,6.145245433E-1,9.467076302E0
1.236199219E1,5.083369091E-2,6.601292491E-1,9.576683044E0
1.237199375E1,5.231809616E-2,7.536467910E-1,9.826138496E0
1.238199375E1,-2.397074737E-2,9.835380912E-1,1.003347683E1
1.239399375E1,-1.833288074E-1,1.267538190E0,1.019884968E1
1.240399375E1,-1.061014384E-1,1.433944821E0,1.027758026E1
1.241399375E1,1.320067048E-1,1.487881422E0,1.033902454E1
1.242599375E1,1.227938160E-1,1.439518571E0,1.034240532E1
1.243599375E1,1.598177552E-1,1.294975877E0,1.048916054E1
1.244599375E1,2.448310703E-1,1.101763844E0,1.065486813E1
1.245799375E1,1.472050995E-1,9.206950665E-1,1.074586678E1
1.246799375E1,5.082411319E-2,7.697550058E-1,1.078812885E1
1.247999375E1,4.362235591E-2,6.961764097E-1,1.091213036E1
1.248999375E1,2.330994792E-2,7.490594983E-1,1.088185787E1
1.249999375E1,-5.324704573E-2,8.927977681E-1,1.087197495E1
1.251199375E1,-1.568585187E-1,1.113083482E0,1.089748669E1
1.252199375E1,-1.765196919E-1,1.269750476E0,1.074496651E1
1.253399219E1,-5.851428956E-3,1.470001578E0,1.057361794E1
1.254399375E1,-2.394201607E-2,1.522003531E0,1.054712868E1
1.255399375E1,6.383899599E-2,1.447572589E0,1.044968414E1
1.256599375E1,2.445629090E-1,1.236767888E0,1.038879585E1
1.257599375E1,3.270862699E-1,1.069260001E0,1.065390968E1
1.258599531E1,4.541513324E-1,8.266890645E-1,1.111236095E1
1.259799375E1,4.775570333E-1,6.012702584E-1,1.121651840E1
1.260799375E1,3.699233234E-1,4.833127260E-1,1.112851715E1
1.261999219E1,2.635154128E-1,3.612946272E-1,1.116224670E1
1.262999375E1,1.018206105E-1,2.920926213E-1,1.103465557E1
1.263999375E1,3.204399347E-2,1.713099182E-1,1.088220215E1
1.265199375E1,3.319321200E-2,8.485050872E-3,1.081088352E1
1.266199375E1,1.347744018E-1,-1.319971383E-1,1.075798130E1
1.267199375E1,2.187342644E-1,-1.740010083E-1,1.064779949E1
1.268199375E1,2.265393734E-1,-1.072889641E-1,1.031644249E1
1.269399375E1,2.905986309E-1,4.887044430E-2,9.940322876E0
1.270599219E1,2.805717289E-1,1.709268540E-1,9.892381668E0
1.271599375E1,2.438063473E-1,2.695870996E-1,9.790053368E0
1.272599375E1,1.908944845E-1,2.656223178E-1,9.510985374E0
1.273799375E1,1.228321195E-1,2.701138258E-1,9.228135109E0
1.274799375E1,2.222776785E-2,2.501653433E-1,9.147689819E0
1.275999219E1,-5.940493569E-2,2.527702451E-1,9.121200562E0
1.276999375E1,-5.742253363E-2,2.531341612E-1,8.992219925E0
1.277999375E1,4.934928566E-2,3.091201782E-1,8.916016579E0
1.279199219E1,3.580672443E-1,7.725610584E-2,8.707701683E0
1.280199375E1,8.122951388E-1,7.348284125E-2,8.643345833E0
1.281199375E1,1.002203226E0,-7.715075463E-2,8.790819168E0
1.282399375E1,1.130130291E0,-1.861443967E-1,9.033782005E0
1.283399688E1,9.997132421E-1,-2.254859209E-1,9.213108063E0
1.284599375E1,7.316680551E-1,-1.295454651E-1,9.443641663E0
1.285599375E1,5.686707497E-1,-9.830592573E-2,9.518895149E0
1.286599375E1,4.945366979E-1,-4.664862528E-2,9.626586914E0
1.287599375E1,5.275288224E-1,-1.130925119E-1,9.811476707E0
1.288799375E1,4.351318181E-1,-1.179862618E-1,9.586957932E0
1.289799375E1,4.758045077E-1,-1.729475558E-1,9.516290665E0
1.290999375E1,5.443265438E-1,-1.781094521E-1,9.555412292E0
1.291999375E1,4.473135173E-1,-1.680729724E-2,9.432369232E0
1.293199219E1,3.192811608E-1,3.295379281E-1,9.165770531E0
1.294199375E1,1.939207613E-1,5.499768853E-1,9.031340599E0
1.295199375E1,-1.148259174E-2,7.189691663E-1,8.987363815E0
1.296399375E1,-7.106947899E-2,7.951718569E-1,9.121668816E0
1.297399375E1,1.991975820E-3,7.661253810E-1,9.116602898E0
1.298399375E1,9.801861644E-2,6.714873910E-1,9.161211967E0
1.299599375E1,2.077305168E-1,5.437902212E-1,9.290823936E0
1.300599375E1,3.051074743E-1,3.848248422E-1,9.489322662E0
1.301799219E1,4.319810271E-1,3.346710801E-1,9.611752510E0
1.302799375E1,4.573020935E-1,3.282067478E-1,9.621482849E0
1.303799375E1,4.289834797E-1,5.235065818E-1,9.481479645E0
1.304999375E1,2.564572990E-1,6.649368405E-1,9.344865799E0
1.305999375E1,1.615894586E-1,8.158003092E-1,9.198398590E0
1.307199219E1,1.472146809E-1,8.640577793E-1,9.174312592E0
1.308199375E1,1.883279085E-1,8.041931987E-1,9.278450966E0
1.309199375E1,2.095979899E-1,6.618435383E-1,9.292595863E0
1.310399219E1,2.691273987E-1,5.972096324E-1,9.353274345E0
1.311399375E1,3.337325752E-1,5.285630822E-1,9.418626785E0
1.312400625E1,3.275363743E-1,4.807844162E-1,9.506302834E0
1.313599375E1,2.896122038E-1,5.347593427E-1,9.607079506E0
1.314599688E1,2.767314017E-1,6.410043836E-1,9.551668167E0
1.315799219E1,3.886172473E-1,8.102361560E-1,9.565621376E0
1.316799375E1,3.720206320E-1,1.013360262E0,9.568637848E0
1.317799375E1,3.103556037E-1,1.154857516E0,9.627410889E0
1.318999219E1,3.543801606E-1,1.198805571E0,9.643125534E0
1.319999375E1,3.824976385E-1,1.162787080E0,9.656734467E0
1.320999375E1,2.872658968E-1,1.098996043E0,9.769252777E0
1.322199375E1,1.297178566E-1,1.014892459E0,9.976505280E0
1.323199375E1,1.950316727E-1,9.908643365E-1,1.013232899E1
1.324199375E1,3.316639662E-1,9.768151045E-1,1.012039566E1
1.325399375E1,3.028473556E-1,1.088164687E0,1.009118652E1
1.326399375E1,2.633621693E-1,1.151132226E0,1.031781292E1
1.327599375E1,3.500609994E-1,1.059807777E0,1.055625629E1
1.328599375E1,4.868274033E-1,9.477399588E-1,1.069439125E1
1.329599375E1,5.153375268E-1,8.828954101E-1,1.070676422E1
1.330799375E1,5.315415263E-1,8.336610198E-1,1.072296906E1
1.331799375E1,5.868476033E-1,8.171793222E-1,1.082357311E1
1.332799375E1,5.845874548E-1,9.252153039E-1,1.082930946E1
1.333999375E1,4.780741930E-1,1.128617048E0,1.071047115E1
1.334999375E1,3.126731515E-1,1.178416491E0,1.066662788E1
1.336199219E1,9.328767657E-2,1.031029463E0,1.078276634E1
1.337199375E1,2.978386823E-3,8.700624704E-1,1.104809189E1
1.338199375E1,-2.236471772E-1,5.871540308E-1,1.132834721E1
1.339399375E1,-8.033025265E-2,3.204016387E-1,1.169155788E1
1.340399375E1,-1.481532026E-2,2.017545998E-1,1.158782101E1
1.341399375E1,-7.557057589E-2,2.738679647E-1,1.134656239E1
1.342599375E1,-1.568585187E-1,3.645698726E-1,1.103433895E1
1.343599375E1,-1.559487134E-1,3.429071307E-1,1.088192463E1
1.344799219E1,-1.216254532E-1,3.482222557E-1,1.080985928E1
1.345799375E1,-1.640890092E-1,2.521956265E-1,1.077449226E1
1.346799375E1,-2.531149983E-2,9.555738419E-2,1.076415825E1
1.347999375E1,2.094639093E-1,-1.090702489E-1,1.082418537E1
1.348999375E1,3.479924202E-1,-2.213391513E-1,1.085991669E1
1.349999375E1,3.602699041E-1,-2.564764619E-1,1.076178360E1
1.351199375E1,2.243271172E-1,-1.836256832E-1,1.039940643E1
1.352199375E1,7.964072376E-2,-7.252515107E-2,1.010860634E1
1.353399219E1,-5.109226704E-2,1.443224773E-2,9.766523361E0
1.354399375E1,-1.350521296E-1,-5.784391426E-3,9.594467163E0
1.355399375E1,-1.333953440E-1,-4.370854422E-2,9.518311501E0
1.356599375E1,-1.053161472E-1,-1.366131455E-1,9.381104469E0
1.357599375E1,-5.997954309E-2,-2.072325349E-1,9.122301102E0
1.358599375E1,-2.537853830E-2,-3.034985960E-1,8.931569099E0
1.359799375E1,-4.283705354E-2,-3.121751845E-1,8.786480904E0
1.360799375E1,-9.189903736E-2,-3.008170724E-1,8.701419830E0
1.361999219E1,-4.157291949E-1,-1.979909092E-1,8.600518227E0
1.362999375E1,-6.065087318E-1,-2.715982497E-2,8.714606285E0
1.363999375E1,-7.607048750E-1,-2.907135487E-1,8.667450905E0
1.365199375E1,-6.335152984E-1,-1.117230281E-1,8.899641037E0
1.366199375E1,-5.803736448E-1,-1.023856401E-1,8.978141785E0
1.367199375E1,-5.011351109E-1,-1.364694983E-1,9.083735466E0
1.368399375E1,-4.132296443E-1,-1.290378869E-1,9.089788437E0
1.369399375E1,-3.255827129E-1,-5.124549568E-2,9.129321098E0
1.370599219E1,-1.948018372E-1,8.279149979E-2,9.217571259E0
1.371599375E1,-1.181969494E-1,1.829074472E-1,9.272264481E0
1.372599375E1,-1.690306515E-2,3.190129995E-1,9.335452080E0
1.373799375E1,6.798575073E-2,4.646187723E-1,9.494771957E0
1.374799375E1,7.996633649E-2,5.235736370E-1,9.432522774E0
1.375999219E1,6.945100427E-2,5.505802035E-1,9.357038498E0
1.376999375E1,1.367089301E-1,5.595344901E-1,9.365724564E0
1.377999375E1,1.086871773E-1,5.319628716E-1,9.288804054E0
1.379199219E1,8.906430448E-4,5.035197735E-1,9.187222481E0
1.380199375E1,-2.571372688E-2,4.614488482E-1,9.344099998E0
1.381199375E1,-6.307285279E-2,4.349785745E-1,9.552002907E0
1.382399375E1,-2.435860783E-1,4.861761928E-1,9.705480576E0
1.383399375E1,-2.245856971E-1,4.773942530E-1,9.709417343E0
1.384599375E1,-2.139554471E-1,4.695508480E-1,9.735906601E0
1.385599375E1,-2.152961940E-1,5.127900839E-1,9.699877739E0
1.386599375E1,-1.870062947E-1,6.046508551E-1,9.620860100E0
1.387599375E1,-2.889897227E-1,7.152725458E-1,9.488834381E0
1.388599375E1,-3.921702206E-1,7.996538281E-1,9.208233833E0
1.389799375E1,-3.080379963E-1,8.191043139E-1,9.218423843E0
1.390799375E1,-1.609190851E-1,7.837563157E-1,9.399338722E0
1.391999375E1,-8.613379300E-2,7.119398117E-1,9.679317474E0
1.393199219E1,-4.681143165E-2,7.287279367E-1,9.809437752E0
1.394199375E1,-7.381802052E-2,7.983226180E-1,9.834767342E0
1.395399219E1,-3.018609434E-2,8.946461082E-1,9.958633423E0
1.396399219E1,-5.103480443E-2,9.826953411E-1,9.792141914E0
1.397399375E1,-5.878243968E-2,1.077218413E0,9.551532745E0
1.398399375E1,-1.743936539E-2,1.187380314E0,9.394033432E0
1.399599375E1,-2.653733268E-2,1.243366480E0,9.229073524E0
1.400599375E1,9.203311056E-3,1.258804202E0,9.454894066E0
1.401599375E1,-4.474284127E-2,1.257185817E0,9.725754738E0
1.402799375E1,-3.505111206E-3,1.199389696E0,1.006551170E1
1.403799375E1,3.064578166E-3,1.157835960E0,1.016060925E1
1.404999375E1,3.263775632E-2,1.084975600E0,1.018498135E1
1.405999375E1,-2.822284959E-2,1.071778774E0,1.018616009E1
1.406999375E1,-8.500374109E-2,1.099666357E0,1.011807823E1
1.408199375E1,-2.426092476E-1,1.156447291E0,1.003350544E1
1.409199375E1,-2.780434191E-1,1.222900748E0,1.007331657E1
1.410399219E1,-4.029632807E-1,1.253690243E0,1.017330742E1
1.411399375E1,-4.146470129E-1,1.219826698E0,1.042331028E1
1.412400625E1,-4.116303027E-1,1.158151984E0,1.062453842E1
1.413599375E1,-4.843949080E-1,1.070667863E0,1.075251293E1
1.414599375E1,-5.183734298E-1,1.082284570E0,1.085710144E1
1.415599375E1,-4.420270920E-1,1.147483349E0,1.085156631E1
1.416799375E1,-4.135552347E-1,1.122009158E0,1.085723495E1
1.417799375E1,-3.882820308E-1,1.023396730E0,1.100039005E1
1.418999219E1,-1.830223501E-1,9.005071521E-1,1.124335384E1
1.419999375E1,-3.265691176E-2,7.865909934E-1,1.138922787E1
1.420999375E1,3.960009664E-2,6.596600413E-1,1.144834518E1
1.422199375E1,-7.393294945E-3,5.034144521E-1,1.149965763E1
1.423199375E1,-6.540001929E-2,3.431082368E-1,1.143752289E1
1.424199375E1,-1.240100712E-1,2.005383372E-1,1.132994652E1
1.425399375E1,-1.385380924E-1,1.202368066E-1,1.102541447E1
1.426399375E1,-2.372653782E-1,1.393138170E-1,1.059218788E1
1.427599375E1,-3.202005327E-1,2.176903933E-1,1.010190296E1
1.428599375E1,-2.289910316E-1,2.189641148E-1,9.951442719E0
1.429599375E1,-2.249783427E-1,2.595793605E-1,9.849477768E0
1.430799375E1,-2.125189155E-1,3.048872054E-1,9.736883163E0
1.431799375E1,-3.047531545E-1,2.372941077E-1,9.827355385E0
1.432799375E1,-2.672791183E-1,1.632653922E-1,1.006899738E1
1.433999375E1,-2.428486645E-1,-2.135627903E-3,1.009645367E1
1.434999375E1,-1.074230447E-1,-1.744989902E-1,1.013927174E1
1.436199219E1,1.351000071E-1,-2.933663428E-1,1.016651726E1
1.437199375E1,3.188022971E-1,-4.698860049E-1,1.005535984E1
1.438199375E1,4.621862769E-1,-5.891747475E-1,9.934576988E0
1.439399375E1,5.754320025E-1,-6.843777299E-1,9.734805107E0
1.440399375E1,6.428527236E-1,-6.629544497E-1,9.587791443E0
1.441399375E1,5.281896591E-1,-5.788796544E-1,9.616943359E0
1.442599375E1,3.309361339E-1,-5.410799980E-1,9.525293350E0
1.443599375E1,2.792980075E-1,-5.881978869E-1,9.376201630E0
1.444599375E1,4.197227061E-1,-7.189883590E-1,9.236964226E0
1.445799375E1,6.209409833E-1,-7.954496145E-1,9.191598892E0
1.446799375E1,6.450554132E-1,-7.901727557E-1,9.106642723E0
1.447999375E1,4.581161141E-1,-7.666138411E-1,9.001337051E0
1.448999375E1,3.306967020E-1,-7.450947165E-1,9.024540901E0
1.449999375E1,2.098757178E-1,-6.915125251E-1,9.187509537E0
1.451199375E1,6.348465383E-2,-6.100617647E-1,9.414624214E0
1.452199375E1,5.295974202E-3,-5.548802018E-1,9.630475998E0
1.453399219E1,-4.252102226E-3,-3.965564370E-1,9.697809219E0
1.454399375E1,1.411046684E-1,-2.638410330E-1,9.436344147E0
1.455399375E1,1.237323433E-1,-1.156303659E-1,9.188658714E0
1.456599375E1,1.276013702E-1,4.189852998E-2,9.088322639E0
1.457599375E1,1.250347942E-1,1.281472445E-1,9.152524948E0
1.458599375E1,4.635174572E-2,1.939399093E-1,9.114639282E0
1.459599375E1,9.623733163E-2,1.911147684E-1,9.194443703E0
1.460799375E1,1.783584505E-1,1.456728131E-1,9.357316017E0
1.461999219E1,2.230150998E-1,1.182065308E-1,9.321517944E0
1.462999375E1,2.736859620E-1,1.248528287E-1,9.250027657E0
1.463999375E1,3.958764672E-1,1.322365403E-1,9.215071678E0
1.465199375E1,4.167060256E-1,9.126696736E-2,9.169984818E0
1.466199375E1,4.422090352E-1,7.279331237E-2,9.253062248E0
1.467199375E1,4.007510543E-1,7.895119488E-2,9.347872734E0
1.468399375E1,2.926193178E-1,1.334240735E-1,9.394454956E0
1.469399375E1,1.295550317E-1,1.772092283E-1,9.424803734E0
1.470599219E1,1.547516137E-1,2.158324867E-1,9.439858437E0
1.471599375E1,2.605753541E-1,4.369418025E-1,9.280164719E0
1.472599375E1,3.078272939E-1,5.201067924E-1,9.072099686E0
1.473799375E1,4.557985663E-1,5.252496004E-1,9.000685692E0
1.474799375E1,5.293962955E-1,5.442403555E-1,8.896355629E0
1.475799375E1,4.085178673E-1,5.351806879E-1,8.883973122E0
1.476999375E1,2.720962167E-1,5.683834553E-1,9.016391754E0
1.477999375E1,2.372941077E-1,6.651188135E-1,9.162120819E0
1.479199219E1,1.348414421E-1,8.937458992E-1,9.162695885E0
1.480199375E1,1.993891224E-2,1.056168556E0,9.127434731E0
1.481199375E1,-8.277233690E-2,1.142599225E0,9.156710625E0
1.482399375E1,-9.560526162E-2,1.096209288E0,9.294922829E0
1.483399375E1,-1.117230281E-1,1.028012753E0,9.426307678E0
1.484399375E1,3.932236880E-2,8.704838157E-1,9.542110443E0
1.485599375E1,1.592144221E-1,7.901631594E-1,9.767902374E0
1.486599375E1,2.663884461E-1,7.998261452E-1,1.008533478E1
1.487599375E1,3.602028489E-1,8.365724087E-1,1.041254616E1
1.488799375E1,3.553857207E-1,9.586096406E-1,1.080297375E1
1.489799375E1,3.286759853E-1,1.067095757E0,1.102226257E1
1.490999375E1,3.938844800E-1,1.114883900E0,1.110753536E1
1.491999375E1,4.214465320E-1,1.095826149E0,1.110646152E1
1.493199219E1,4.644272327E-1,1.043287754E0,1.109938431E1
1.494199375E1,4.122049212E-1,9.976637959E-1,1.111412430E1
1.495199375E1,2.007681727E-1,1.040634990E0,1.112769413E1
1.496399219E1,5.044104159E-2,1.129507661E0,1.114110184E1
1.497399375E1,-9.111373872E-2,1.259072423E0,1.114772892E1
1.498399375E1,-3.082199395E-1,1.331980586E0,1.122502327E1
1.499599375E1,-6.091998219E-1,1.171655297E0,1.130561256E1
1.500599375E1,-6.052350402E-1,1.025944233E0,1.153863430E1
1.501799219E1,-3.926394880E-1,8.138466477E-1,1.196308899E1
1.502799375E1,-1.990826577E-1,6.532531977E-1,1.206180668E1
1.503799375E1,9.006028622E-2,5.665447116E-1,1.193657017E1
1.504999219E1,1.081700400E-1,4.665437341E-1,1.162070847E1
1.505999375E1,7.228573412E-2,5.972000957E-1,1.117182446E1
1.506999375E1,1.049522236E-1,5.412907004E-1,1.088671303E1
1.508199375E1,2.425134778E-1,4.071004987E-1,1.062509346E1
1.509199375E1,3.130083680E-1,3.044083714E-1,1.040923214E1
1.510399219E1,5.569104552E-1,2.758120187E-3,1.042364597E1
1.511399375E1,7.282491326E-1,-2.510655522E-1,1.054077911E1
1.512400625E1,7.815536261E-1,-3.737157285E-1,1.054761696E1
1.513599219E1,7.287567258E-1,-4.844236076E-1,1.033604717E1
1.514599375E1,5.995368361E-1,-4.705468118E-1,1.013623619E1
1.515599375E1,5.168507099E-1,-3.444298804E-1,9.925210953E0
1.516799375E1,3.240408301E-1,-2.336262017E-1,9.634488106E0
1.517999219E1,2.396117151E-1,-1.258775443E-1,9.435385704E0
1.518999219E1,1.665119380E-1,-1.554124206E-1,9.310610771E0
1.519999375E1,5.590939894E-2,-2.105077952E-1,9.176122665E0
1.520999375E1,7.567592710E-2,-3.229874074E-1,9.147201538E0
1.522199375E1,1.490534246E-1,-4.994113147E-1,9.163328171E0
1.523199375E1,1.352340877E-1,-5.528690815E-1,9.125374794E0
1.524199375E1,5.556463078E-2,-5.605305433E-1,8.958269119E0
1.525399375E1,-9.703220427E-2,-5.299326181E-1,8.963115692E0
1.526399375E1,-3.020333350E-1,-4.822592437E-1,9.004669189E0
1.527599375E1,-2.920926213E-1,-4.606827199E-1,9.182472229E0
1.528599375E1,-4.255645871E-1,-3.471401036E-1,8.896661758E0
1.529599531E1,-2.611020505E-1,-3.578948379E-1,8.865335464E0
1.530799375E1,4.244440794E-2,-4.662372768E-1,9.135967255E0
1.531799375E1,3.513730317E-2,-4.999763370E-1,9.330309868E0
1.532799375E1,2.256295830E-2,-5.255464315E-1,9.581518173E0
1.533999375E1,8.449617028E-2,-5.036250949E-1,9.854122162E0
1.535199219E1,8.780016005E-2,-3.919499815E-1,9.966860771E0
1.536199219E1,1.136383861E-1,-3.194343746E-1,9.947410583E0
1.537199375E1,1.365844160E-1,-2.141565531E-1,9.758565903E0
1.538199375E1,1.058332920E-1,-4.931097850E-2,9.530704498E0
1.539399375E1,2.260701060E-1,1.195760146E-1,9.245582581E0
1.540399375E1,3.006351292E-1,1.481723487E-1,9.076764107E0
1.541399375E1,3.591015339E-1,1.689253002E-1,8.994277954E0
1.542599375E1,4.971224666E-1,1.277450323E-1,9.125930786E0
1.543599375E1,5.382069945E-1,6.714299321E-2,9.295804024E0
1.544799219E1,4.203068912E-1,8.148904890E-2,9.394981384E0
1.545799375E1,2.903304696E-1,6.962338090E-2,9.389235497E0
1.546799375E1,2.600677907E-1,8.737878501E-2,9.395833969E0
1.547799375E1,1.795076579E-1,1.509113163E-1,9.267590523E0
1.548799375E1,1.040807366E-1,1.935951561E-1,9.131820679E0
1.549799375E1,9.713754803E-2,2.861262560E-1,9.042938232E0
1.550799375E1,1.250730902E-1,3.674333394E-1,8.872537613E0
1.551799375E1,1.253508180E-1,4.636515081E-1,8.837506294E0
1.552799375E1,1.703330874E-1,5.494692922E-1,8.877260208E0
1.553799375E1,1.767878532E-1,6.094584465E-1,8.948041916E0
1.554799375E1,1.270842254E-1,7.277894020E-1,8.964380264E0
1.555799375E1,-3.830722562E-5,7.515973449E-1,8.977739334E0
1.556799375E1,-5.746084079E-2,7.474218607E-1,9.059831619E0
1.557799375E1,-3.439988941E-2,7.964264154E-1,9.220798492E0
1.558799375E1,-7.829996943E-2,7.776750326E-1,9.259603500E0
1.559799375E1,-3.922659904E-2,8.711542487E-1,9.323223114E0
1.560799375E1,9.130527824E-2,8.981224895E-1,9.603784561E0
1.561799375E1,2.129019946E-1,9.010051489E-1,9.766398430E0
1.562799375E1,2.418718189E-1,9.522219300E-1,9.868870735E0
1.563999375E1,2.659287751E-1,1.055009723E0,9.926169395E0
1.564999375E1,2.017545998E-1,1.134803653E0,9.926570892E0
1.565999375E1,1.177372634E-1,1.275726438E0,9.844957352E0
1.567199375E1,3.384443745E-2,1.379251719E0,9.807109833E0
1.568399375E1,1.726219505E-1,1.456938744E0,9.878897667E0
1.569399375E1,5.909847468E-2,1.491472721E0,9.846863747E0
1.570599219E1,1.636676304E-2,1.413785696E0,1.004664421E1
1.571599375E1,1.292773187E-1,1.253977537E0,1.024088192E1
1.572599375E1,2.392669320E-1,1.156849504E0,1.038354778E1
1.573599375E1,1.200452745E-1,1.082476020E0,1.046045876E1
1.574599375E1,-1.644337736E-2,1.088796735E0,1.044473362E1
1.575599375E1,4.711789079E-3,1.262711525E0,1.057328320E1
1.576799219E1,-2.197685689E-1,1.205834866E0,1.078963280E1
1.577799219E1,-6.331226975E-2,1.183223963E0,1.095549297E1
1.578799219E1,7.179731876E-2,1.118858457E0,1.091890049E1
1.579799375E1,1.109377295E-1,1.088327527E0,1.089451790E1
1.580799375E1,2.066483349E-1,1.139228106E0,1.104003716E1
1.581799375E1,3.345274329E-1,1.277191639E0,1.110290909E1
1.582799375E1,4.194928706E-1,1.500407815E0,1.102041531E1
1.583999375E1,2.728911042E-1,1.755198836E0,1.074080086E1
1.584999375E1,2.587844729E-1,1.719017744E0,1.075852776E1
1.586199219E1,3.480786085E-1,1.416093707E0,1.113359356E1
1.587199375E1,2.925906181E-1,1.065486789E0,1.152613640E1
1.588199375E1,3.090052605E-1,7.412448525E-1,1.170641136E1
1.589399375E1,3.808983564E-1,4.545631409E-1,1.152832031E1
1.590399375E1,4.567945302E-1,3.122422099E-1,1.132141399E1
1.591399375E1,4.393647313E-1,1.878203303E-1,1.119362068E1
1.592599375E1,4.182862043E-1,8.758947998E-2,1.121331024E1
1.593599375E1,3.446980119E-1,1.773624681E-2,1.114786339E1
1.594599688E1,3.039295375E-1,-5.190629512E-3,1.099024773E1
1.595799375E1,4.117835462E-1,-7.899907976E-2,1.057260323E1
1.596799375E1,5.627523065E-1,-8.892065287E-2,1.029641819E1
1.597799375E1,6.585873961E-1,-1.302445680E-1,1.004879951E1
1.598999375E1,7.820612192E-1,-1.445906162E-1,9.830918312E0
1.599999375E1,7.307486534E-1,-9.753019363E-2,9.598977089E0
1.601199375E1,5.037017465E-1,-4.616978392E-2,9.417084694E0
1.602199375E1,3.223170042E-1,2.173935063E-3,9.276181221E0
1.603399219E1,1.758876294E-1,7.283161581E-2,9.221785545E0
1.604399375E1,6.877104938E-2,1.431062222E-1,9.074139595E0
1.605399375E1,6.041049585E-2,1.659086049E-1,8.984547615E0
1.606599375E1,2.193280309E-1,4.629428312E-2,8.942812920E0
1.607599375E1,4.074931443E-1,-1.107749268E-1,8.932009697E0
1.608599375E1,5.890981555E-1,-2.932418287E-1,9.043789864E0
1.609799375E1,7.522581816E-1,-4.897578955E-1,9.214296341E0
1.610799375E1,7.135295272E-1,-6.319639087E-1,9.215588570E0
1.611799375E1,7.730494142E-1,-7.511472702E-1,9.366633415E0
1.612999375E1,6.919721961E-1,-8.000560403E-1,9.529966354E0
1.613999375E1,6.916944385E-1,-7.383047342E-1,9.680110931E0
1.615199375E1,7.472782731E-1,-5.949686766E-1,9.665957451E0
1.616199375E1,6.797330379E-1,-3.755353391E-1,9.596726418E0
1.617199375E1,6.499779224E-1,-2.434998900E-1,9.479324341E0
1.618399375E1,6.335058212E-1,-1.132840514E-1,9.300362587E0
1.619399375E1,6.069492698E-1,-4.471411183E-2,9.202928543E0
1.620399375E1,4.513932168E-1,-3.399766609E-2,9.152611732E0
1.621599375E1,4.404948056E-1,-4.677312449E-2,9.241781235E0
1.622599375E1,3.972842395E-1,-2.333867922E-2,9.331066132E0
1.623799375E1,3.325450420E-1,7.179731876E-2,9.370656013E0
1.624799375E1,2.935099900E-1,2.086498886E-1,9.339187622E0
1.625799375E1,2.596176565E-1,3.817602396E-1,9.396820068E0
1.626999375E1,1.587451547E-1,5.777783394E-1,9.241781235E0
1.627999375E1,1.396394223E-1,6.723971367E-1,9.124474525E0
1.629199219E1,1.206198782E-1,6.574478149E-1,8.922375679E0
1.630199375E1,1.688486785E-1,5.426889062E-1,9.179723740E0
1.631199375E1,2.730251849E-1,3.567264676E-1,9.452873230E0
1.632399375E1,3.378027081E-1,2.623087466E-1,9.570351601E0
1.633399375E1,4.507036805E-1,2.188300341E-1,9.693241119E0
1.634399375E1,5.603485703E-1,2.529617846E-1,9.706649780E0
1.635599375E1,6.339271069E-1,3.260136843E-1,9.604886055E0
1.636599375E1,6.999018192E-1,3.850546479E-1,9.522716522E0
1.637599375E1,6.029940844E-1,4.528967738E-1,9.414566040E0
1.638799375E1,5.423346162E-1,5.759874582E-1,9.310313225E0
1.639799375E1,4.489319623E-1,6.619679928E-1,9.205245972E0
1.640999375E1,3.736199737E-1,7.360063195E-1,9.065673828E0
1.641999375E1,3.834457695E-1,7.548534870E-1,8.953797340E0
1.642999375E1,3.583545089E-1,7.917242050E-1,9.049977303E0
1.644199375E1,4.070430398E-1,7.652826309E-1,9.194826126E0
1.645199375E1,4.102608263E-1,8.393496871E-1,9.230902672E0
1.646399219E1,3.179212511E-1,9.866313338E-1,9.254461288E0
1.647399375E1,3.007500172E-1,1.081173539E0,9.327818871E0
1.648399375E1,3.119836450E-1,1.139908195E0,9.256127357E0
1.649599375E1,2.261275649E-1,1.171195507E0,9.142441750E0
1.650599375E1,1.827350408E-1,1.152530432E0,9.128314972E0
1.651599375E1,1.437287182E-1,1.128607512E0,9.175615311E0
1.652799375E1,7.629841566E-2,1.143135548E0,9.267140388E0
1.653799375E1,3.329855576E-2,1.185417056E0,9.356616974E0
1.654999219E1,1.038317382E-1,1.262242317E0,9.635876656E0
1.655999375E1,2.091095746E-1,1.301028371E0,9.851221085E0
1.656999375E1,2.382039130E-1,1.316801429E0,9.923965454E0
1.658199375E1,2.694913447E-1,1.248700738E0,1.009654999E1
1.659199375E1,2.437776178E-1,1.228646874E0,1.033213902E1
1.660199375E1,1.744319648E-1,1.252962351E0,1.037315655E1
1.661399375E1,1.323323250E-1,1.338320494E0,1.068862629E1
1.662400625E1,1.414494365E-1,1.437718153E0,1.075243664E1
1.663599219E1,1.946964860E-1,1.462397575E0,1.088043022E1
1.664599375E1,2.010746300E-1,1.437277555E0,1.101423740E1
1.665599375E1,2.117815167E-1,1.372126579E0,1.108707905E1
1.666799375E1,2.421399802E-1,1.239459157E0,1.134015560E1
1.667799375E1,2.284451425E-1,1.290867329E0,1.147085094E1
1.668799375E1,2.813474536E-1,1.466630459E0,1.138793468E1
1.669999375E1,6.287173927E-2,1.524886250E0,1.115610886E1
1.670999375E1,-1.118762568E-1,1.490198970E0,1.109885883E1
1.672199219E1,-1.707927734E-1,1.381320357E0,1.143501377E1
1.673199375E1,-7.213250548E-2,1.148000598E0,1.175832748E1
1.674199375E1,1.540429443E-1,8.679555655E-1,1.183981514E1
1.675399375E1,2.270565182E-1,6.027737856E-1,1.150245380E1
1.676399375E1,2.835501134E-1,4.714182913E-1,1.114132214E1
1.677599375E1,3.685538471E-1,3.761578202E-1,1.092839146E1
1.678599375E1,3.546770215E-1,3.456844091E-1,1.091626644E1
1.679599375E1,2.898994982E-1,1.748725027E-1,1.085529137E1
1.680799219E1,2.453865260E-1,-1.830606759E-1,1.083368683E1
1.681799375E1,4.636898339E-1,-5.164963603E-1,1.106231308E1
1.682799375E1,5.038357973E-1,-7.625628114E-1,1.107315445E1
1.683999375E1,5.065556169E-1,-8.812003136E-1,1.084539890E1
1.684999375E1,4.486829937E-1,-9.812875390E-1,1.072591782E1
1.686199219E1,1.210604161E-1,-9.387760758E-1,1.047513103E1
1.687199375E1,-9.693644196E-2,-8.536190987E-1,1.004035282E1
1.688199375E1,-3.005106151E-1,-7.463588715E-1,9.750932693E0
1.689399219E1,-3.402831256E-1,-7.160003781E-1,9.693863869E0
1.690399219E1,-2.733699679E-1,-6.807960272E-1,9.489830017E0
1.691399375E1,-3.266170025E-1,-6.474017501E-1,9.430338860E0
1.692599375E1,-3.675003946E-1,-6.847895384E-1,9.550853729E0
1.693599375E1,-4.147619307E-1,-6.972681284E-1,9.555412292E0
1.694799219E1,-4.365108609E-1,-6.990590096E-1,9.475761414E0
1.695799375E1,-4.559517801E-1,-6.885819435E-1,9.369335175E0
1.696799375E1,-3.825072348E-1,-6.181445718E-1,9.292413712E0
1.697999375E1,-4.151928723E-1,-4.586141407E-1,9.120787621E0
1.698999375E1,-3.324779868E-1,-2.580757737E-1,9.105293274E0
1.699999375E1,-2.323333323E-1,-1.105738133E-1,9.084653854E0
1.701199375E1,-2.348615974E-1,1.317768544E-2,8.961123466E0
1.702199375E1,-9.084559232E-2,8.911219239E-2,8.859820366E0
1.703399219E1,1.761653572E-1,2.983175218E-2,8.694849968E0
1.704399375E1,3.380612731E-1,7.699752599E-2,8.867021561E0
1.705399375E1,3.346998394E-1,-4.721365869E-3,9.120778084E0
1.706599375E1,2.500695884E-1,-2.114558965E-2,9.082729340E0
1.707599375E1,1.837501973E-1,2.980302274E-2,8.960836411E0
1.708599375E1,1.836065352E-1,1.055364124E-2,9.185336113E0
1.709799375E1,2.116570175E-1,1.582088508E-2,9.320053101E0
1.710799375E1,1.614649594E-1,8.027279377E-2,9.263741493E0
1.711799375E1,1.964107305E-1,8.305007219E-2,9.102170944E0
1.712999375E1,1.802642345E-1,1.505474150E-1,8.971868515E0
1.713999375E1,2.576927245E-1,1.943421513E-1,8.983360291E0
1.715199375E1,2.077113688E-1,2.349095047E-1,8.936970711E0
1.716199375E1,1.339412183E-1,3.100778461E-1,8.981244087E0
1.717199375E1,1.337018013E-1,2.927342653E-1,9.152621269E0
1.718399375E1,2.954444848E-2,3.864432871E-1,9.311969757E0
1.719399375E1,-6.633853912E-2,3.597527444E-1,9.327368736E0
1.720599219E1,-4.281790182E-2,4.747989178E-1,9.296444893E0
1.721599375E1,-7.565677911E-2,5.399978161E-1,9.203425407E0
1.722599375E1,-9.002198465E-3,5.950261950E-1,9.123575211E0
1.723799375E1,2.791639045E-2,6.718034148E-1,9.042632103E0
1.724799375E1,-7.687303424E-2,7.325873971E-1,9.003232002E0
1.725799375E1,6.417418271E-2,8.548449278E-1,9.021945000E0
1.726999375E1,2.774400823E-2,9.124589562E-1,9.141214371E0
1.727999375E1,-4.587290436E-2,1.005756259E0,9.228240013E0
1.729199219E1,-6.129156100E-4,1.038326979E0,9.382513046E0
1.730199375E1,1.782626808E-1,1.026173949E0,9.573646545E0
1.731199375E1,3.046765327E-1,9.993206263E-1,9.699034691E0
1.732399375E1,4.832648337E-1,1.009194374E0,9.639937401E0
1.733399375E1,5.631737113E-1,1.071223259E0,9.616599083E0
1.734399375E1,5.674353838E-1,1.092378378E0,9.607242584E0
1.735599375E1,5.065268874E-1,1.189563870E0,9.714521408E0
1.736599375E1,3.830052614E-1,1.271177530E0,9.743395805E0
1.737599375E1,2.993135154E-1,1.272058487E0,9.713027000E0
1.738799375E1,2.890950739E-1,1.156265378E0,9.855051994E0
1.739799375E1,2.454918623E-1,1.043680429E0,1.000027466E1
1.740999375E1,2.315097302E-1,1.003850460E0,1.023720455E1
1.742199219E1,1.185704395E-1,1.048018694E0,1.055141926E1
1.743199219E1,5.752787739E-2,1.123177528E0,1.062746906E1
1.744199375E1,4.533660412E-2,1.171971321E0,1.054374790E1
1.745199375E1,4.801810905E-2,1.191737771E0,1.051653099E1
1.746399219E1,1.596741080E-1,1.202157378E0,1.037519646E1
1.747399375E1,1.089936346E-1,1.270487905E0,1.030104256E1
1.748399375E1,-4.560475424E-2,1.339297295E0,1.036659622E1
1.749599375E1,-8.020575345E-2,1.363660693E0,1.055896568E1
1.750599375E1,-2.189257927E-2,1.318984866E0,1.060426331E1
1.751599375E1,5.659892783E-2,1.326588869E0,1.068530273E1
1.752799375E1,1.082562283E-1,1.497879624E0,1.087308502E1
1.753799375E1,-2.803131379E-2,1.615329623E0,1.098013496E1
1.754999219E1,-2.959137559E-1,1.595275760E0,1.098678970E1
1.755999375E1,-1.281185150E-1,1.313229203E0,1.117815399E1
1.756999375E1,8.309795707E-2,9.943598509E-1,1.131614685E1
1.758199375E1,1.629397869E-1,6.614604592E-1,1.145582390E1
1.759199375E1,1.809154451E-1,4.832265377E-1,1.135141754E1
1.760199375E1,2.216647714E-1,3.990080953E-1,1.115343666E1
1.761399375E1,7.053317875E-2,4.484818578E-1,1.098970222E1
1.762400625E1,-1.692892164E-1,5.621873140E-1,1.076296139E1
1.763599219E1,-2.032773048E-1,6.557048559E-1,1.053610611E1
1.764599375E1,-2.563136518E-1,6.720907092E-1,1.049403477E1
1.765599375E1,-3.376686275E-1,5.889927745E-1,1.031263065E1
1.766799375E1,-4.781699926E-2,3.908390403E-1,1.015190315E1
1.767799375E1,1.649988145E-1,2.682463825E-1,1.007749176E1
1.768799375E1,3.287239075E-1,1.840279251E-1,9.828743935E0
1.769999375E1,4.857643843E-1,2.181692421E-1,9.635570526E0
1.770999375E1,5.891076922E-1,2.040530294E-1,9.550460815E0
1.772199219E1,5.166304111E-1,1.261648536E-1,9.579460144E0
1.773199375E1,5.263221264E-1,2.195961773E-2,9.652521133E0
1.774199375E1,3.521104455E-1,-1.453088820E-1,9.805443764E0
1.775399375E1,2.509027421E-1,-3.282450438E-1,9.829778671E0
1.776399375E1,1.664927900E-1,-4.628470838E-1,9.731328011E0
1.777399375E1,1.498387158E-1,-5.156535506E-1,9.519355774E0
1.778599375E1,2.629407942E-1,-5.867709517E-1,9.372686386E0
1.779599375E1,3.163602352E-1,-5.675982237E-1,9.258224487E0
1.780799219E1,4.260146916E-1,-5.127614141E-1,9.208942413E0
1.781799375E1,4.754309952E-1,-4.645134211E-1,9.200926781E0
1.782799375E1,5.145139098E-1,-3.683814406E-1,9.325922966E0
1.783999375E1,5.254697800E-1,-4.073303342E-1,9.350133896E0
1.784999375E1,4.820677042E-1,-3.572531939E-1,9.430999756E0
1.786199219E1,4.579533339E-1,-3.513442874E-1,9.483729362E0
1.787199375E1,4.198950827E-1,-3.214455247E-1,9.466463089E0
1.788199375E1,3.547536731E-1,-3.176147938E-1,9.411348343E0
1.789399219E1,2.816251516E-1,-2.949464917E-1,9.475187302E0
1.790399375E1,2.263574004E-1,-2.836745977E-1,9.530148506E0
1.791399375E1,1.886918247E-1,-2.211571932E-1,9.491515160E0
1.792599375E1,1.248145252E-1,-3.080858849E-2,9.335768700E0
1.793599375E1,1.114261448E-1,1.085722595E-1,9.229063034E0
1.794599375E1,8.152735978E-2,2.489873916E-1,9.218337059E0
1.795599375E1,3.000413440E-2,3.493618965E-1,9.249519348E0
1.796799375E1,1.082083434E-1,4.348923564E-1,9.162055016E0
1.797999219E1,1.754662544E-1,3.862613440E-1,9.009256363E0
1.798999375E1,2.479147911E-1,3.293463886E-1,9.108701706E0
1.799999375E1,3.163219392E-1,2.321705371E-1,9.289148331E0
1.801199375E1,3.795097172E-1,2.154398561E-1,9.421930313E0
1.802199375E1,4.016034007E-1,2.113601267E-1,9.434945107E0
1.803399219E1,3.683048487E-1,2.556720078E-1,9.603985786E0
1.804399375E1,4.048499465E-1,2.890280187E-1,9.644448280E0
1.805399375E1,3.732368648E-1,4.244632125E-1,9.451178551E0
1.806599219E1,2.293836772E-1,5.916455984E-1,9.297948837E0
1.807599375E1,2.599049807E-1,6.230000257E-1,9.212831497E0
1.808599375E1,1.057183668E-1,6.529371142E-1,9.095954895E0
1.809799375E1,-8.052179217E-2,5.682302117E-1,9.171649933E0
1.810799375E1,4.438849911E-2,3.674525023E-1,9.331324577E0
1.811999219E1,2.217605412E-1,1.904443800E-1,9.554865837E0
1.812999375E1,1.474445164E-1,2.040721774E-1,9.674998283E0
1.813999375E1,1.206581891E-1,3.541215956E-1,9.720046997E0
1.814999375E1,9.650548548E-2,5.506855249E-1,9.598699570E0
1.816199375E1,4.273171350E-2,7.910634279E-1,9.523426056E0
1.817199375E1,8.920795470E-2,9.118269086E-1,9.612212181E0
1.818399375E1,5.564124510E-2,1.021318555E0,9.596956253E0
1.819399375E1,-1.726698317E-2,1.073157787E0,9.608669281E0
1.820599219E1,-5.142745376E-2,1.060669661E0,9.655853271E0
1.821599375E1,-7.360734046E-2,9.890829921E-1,9.741786003E0
1.822599375E1,-9.595960379E-2,9.542330503E-1,9.912042618E0
1.823799375E1,-2.352063730E-2,9.620381594E-1,1.002566242E1
1.824799375E1,3.505111486E-2,9.638289809E-1,1.016781044E1
1.825799375E1,-1.037742794E-1,1.035702825E0,1.025161743E1
1.826999375E1,-2.438254952E-1,1.038671732E0,1.036887550E1
1.827999375E1,-2.048287541E-1,1.026049614E0,1.050446415E1
1.829199219E1,-2.106993198E-1,1.054128647E0,1.056736469E1
1.830199375E1,-1.368046850E-1,1.043498397E0,1.058553219E1
1.831199375E1,-8.498457819E-2,1.030627251E0,1.063662434E1
1.832399375E1,4.388092831E-2,9.348208904E-1,1.084140491E1
1.833399375E1,1.949933618E-1,8.638662696E-1,1.100179672E1
1.834399375E1,2.196632177E-1,8.411118388E-1,1.108862114E1
1.835599375E1,2.630078495E-1,1.005267859E0,1.099154949E1
1.836599375E1,1.414973140E-1,1.141009569E0,1.104292965E1
1.837599375E1,-5.063257739E-2,1.130896330E0,1.095058060E1
1.838599375E1,-2.566392720E-1,1.049953222E0,1.095726585E1
1.839599531E1,-2.853505313E-1,9.145755172E-1,1.099295807E1
1.840799219E1,-2.376293093E-1,8.630809784E-1,1.128346062E1
1.841799219E1,-4.103661776E-1,8.263347745E-1,1.138185215E1
1.842799219E1,-3.972076476E-1,7.279521823E-1,1.118941689E1
1.843799219E1,-2.023866624E-1,6.190256476E-1,1.073891449E1
1.844799219E1,-1.547324657E-1,5.615264773E-1,1.072745037E1
1.845799375E1,-2.078358680E-1,5.738422871E-1,1.085473633E1
1.846799375E1,-2.296422571E-1,4.738412499E-1,1.101138401E1
1.847999219E1,-1.720856428E-1,3.005585074E-1,1.102255917E1
1.848999375E1,-6.585012376E-2,7.150044292E-2,1.090516663E1
1.849999375E1,1.710034609E-1,-1.917564124E-1,1.095470810E1
1.851199375E1,4.012586474E-1,-4.463174939E-1,1.089462280E1
1.852199375E1,4.306019545E-1,-5.548322797E-1,1.065315342E1
1.853399219E1,3.133914173E-1,-6.123409867E-1,1.030356121E1
1.854399375E1,1.400991082E-1,-5.858898759E-1,1.010623169E1
1.855399375E1,-8.629661053E-2,-5.413289666E-1,9.973056793E0
1.856599219E1,-2.821231484E-1,-3.932237029E-1,9.669395447E0
1.857599375E1,-3.473028839E-1,-3.127497733E-1,9.597368240E0
1.858599375E1,-3.102693856E-1,-3.570520878E-1,9.341715813E0
1.859799375E1,-2.323812097E-1,-4.007702172E-1,9.072567940E0
1.860799375E1,-1.443895102E-1,-5.076856613E-1,8.936022758E0
1.861799375E1,-1.446864009E-1,-6.371641159E-1,8.841757774E0
1.862999375E1,-2.171445191E-1,-7.372130156E-1,8.799428940E0
1.863999375E1,-4.006648660E-1,-7.572094202E-1,8.805932045E0
1.865199219E1,-5.988855958E-1,-6.495181918E-1,8.722699165E0
1.866199375E1,-6.059916019E-1,-5.119761229E-1,8.739305496E0
1.867199375E1,-5.169368982E-1,-2.722398937E-1,8.697953224E0
1.868399375E1,-5.183638334E-1,-8.311710507E-2,8.632773399E0
1.869399375E1,-3.722504973E-1,-4.625597596E-2,8.759684563E0
1.870599219E1,-1.357991248E-1,-6.155013666E-2,8.950923920E0
1.871599375E1,-4.620809108E-2,-6.878062338E-2,9.048224449E0
1.872599375E1,-2.503377385E-2,-6.282385439E-2,9.130690575E0
1.873599375E1,-6.787082553E-2,-1.116655618E-1,9.205044746E0
1.874599375E1,-1.563988328E-1,-1.196238920E-1,9.241513252E0
1.875599375E1,-1.342093647E-1,-5.069961399E-2,9.319726944E0
1.876799219E1,-6.506482512E-2,-3.548207134E-2,9.517909050E0
1.877799219E1,1.473870594E-2,-1.614649594E-2,9.654311180E0
1.878799375E1,8.823111653E-2,6.895300467E-4,9.589850426E0
1.879999219E1,2.703340948E-1,1.366610359E-2,9.592072487E0
1.880999219E1,3.867018819E-1,3.317405656E-2,9.555786133E0
1.881999375E1,3.510665894E-1,1.192982793E-1,9.318817139E0
1.883199219E1,2.230342627E-1,2.287611812E-1,9.018105507E0
1.884199375E1,6.655880809E-2,3.360022604E-1,8.923697472E0
1.885399219E1,-1.000680551E-1,4.199717045E-1,8.931387901E0
1.886399219E1,-1.708981097E-1,4.918648005E-1,8.948636055E0
1.887399375E1,-1.170956194E-1,5.005126595E-1,8.927566528E0
1.888599219E1,1.201218888E-1,4.553388655E-1,8.953011513E0
1.889599219E1,2.585259080E-1,3.851504624E-1,8.996442795E0
1.890599219E1,3.197312653E-1,3.156036735E-1,9.142489433E0
1.891599219E1,3.573489785E-1,2.595314682E-1,9.228517532E0
1.892599375E1,3.697509468E-1,3.011235297E-1,9.332291603E0
1.893599375E1,2.667332292E-1,4.158345461E-1,9.392003059E0
1.894599375E1,8.376832306E-2,5.656253695E-1,9.334025383E0
1.895599375E1,1.130063273E-2,6.954007149E-1,9.294559479E0
1.896799375E1,8.768524230E-2,7.651389837E-1,9.382589340E0
1.897999219E1,2.277843505E-1,7.832295299E-1,9.531326294E0
1.898999375E1,3.452726007E-1,7.859206796E-1,9.597071648E0
1.899999375E1,3.627790213E-1,7.591247559E-1,9.549982071E0
1.901199375E1,3.976385891E-1,6.807194352E-1,9.778111458E0
1.902199375E1,2.022430152E-1,7.135487199E-1,9.934088707E0
1.903399219E1,5.290227756E-2,8.182998300E-1,1.006456375E1
1.904399375E1,-9.231084585E-2,1.017047286E0,1.014333248E1
1.905399375E1,-8.958145231E-2,1.195233345E0,1.010786915E1
1.906599219E1,-1.006330848E-1,1.365193009E0,1.011142254E1
1.907599375E1,-1.382795125E-1,1.380697727E0,1.013323784E1
1.908599375E1,-1.869201213E-1,1.259800196E0,1.033108616E1
1.909599375E1,-2.110153586E-1,1.087934852E0,1.051078510E1
1.910799375E1,-2.058821917E-1,9.408255219E-1,1.064727306E1
1.911999219E1,-2.769612372E-1,9.434494972E-1,1.075846004E1
1.912999375E1,-3.099150360E-1,9.525762200E-1,1.076434994E1
1.913999375E1,-3.020237386E-1,9.286629558E-1,1.091117191E1
1.915199219E1,-3.250559568E-1,9.732238054E-1,1.105501556E1
1.916199375E1,-4.379952550E-1,9.951930642E-1,1.115406799E1
1.917199375E1,-4.069185257E-1,1.057327390E0,1.123641014E1
1.918399375E1,-3.734380305E-1,1.078271866E0,1.139882278E1
1.919399375E1,-4.149151742E-1,1.247493982E0,1.131414413E1
1.920599219E1,-3.018800914E-1,1.428217888E0,1.118046188E1
1.921599375E1,-3.719727397E-1,1.460999370E0,1.105568600E1
1.922599375E1,-3.145310581E-1,1.354610562E0,1.113387108E1
1.923599375E1,-2.721824348E-1,9.904908538E-1,1.151474953E1
1.924799375E1,-5.518155918E-2,4.685644209E-1,1.190677643E1
1.925799375E1,1.765388697E-1,1.620012671E-1,1.184822464E1
1.926999375E1,2.361257523E-1,-7.477571070E-2,1.173524666E1
1.928003125E1,1.342476755E-1,-1.293730736E-1,1.145547009E1
1.929199219E1,-7.862558588E-3,5.018246826E-3,1.124979782E1
1.930199375E1,-2.503377385E-2,1.105163470E-1,1.100748634E1
1.931199375E1,-6.754522026E-2,1.918425858E-1,1.080452442E1
1.932399375E1,6.244077906E-2,2.004042715E-1,1.035678959E1
1.933399375E1,1.487469673E-1,1.260882467E-1,1.003790092E1
1.934399375E1,2.012853175E-1,6.521805376E-2,9.877365112E0
1.935599375E1,4.030686319E-1,2.587653138E-2,9.920336723E0
1.936599375E1,6.769940853E-1,-4.834371805E-2,9.983706474E0
1.937599375E1,8.006018400E-1,-1.442362815E-1,9.901230812E0
1.938799375E1,7.284598351E-1,-3.334069550E-1,9.819828033E0
1.939799375E1,7.030813098E-1,-5.008382797E-1,9.826502800E0
1.940999375E1,6.373172998E-1,-6.841574907E-1,9.801880836E0
1.941999375E1,5.924212933E-1,-7.214496136E-1,9.729317665E0
1.942999375E1,5.724248886E-1,-7.213538289E-1,9.609626770E0
1.944199375E1,5.405915976E-1,-7.166707516E-1,9.525637627E0
1.945199375E1,6.265817285E-1,-7.455352545E-1,9.484878540E0
1.946399219E1,7.951813936E-1,-7.406893969E-1,9.329935074E0
1.947399375E1,8.298111558E-1,-7.241023779E-1,9.247718811E0
1.948399375E1,8.346666098E-1,-7.190553546E-1,9.306214333E0
1.949599375E1,7.637790442E-1,-7.460141182E-1,9.349530220E0
1.950599375E1,6.303358674E-1,-7.748977542E-1,9.299712181E0
1.951599375E1,6.004753709E-1,-7.852215767E-1,9.257391930E0
1.952799375E1,5.897493362E-1,-7.796095610E-1,9.110129356E0
1.953799375E1,5.970468521E-1,-7.222540379E-1,8.984959602E0
1.954999219E1,6.427282095E-1,-6.478901505E-1,8.933637619E0
1.955999375E1,6.162962914E-1,-6.181445718E-1,8.881176949E0
1.956999375E1,5.723099709E-1,-5.144469142E-1,8.906918526E0
1.958199375E1,3.959722221E-1,-4.124922156E-1,8.882229805E0
1.959199375E1,3.103364110E-1,-2.978290915E-1,8.949563980E0
1.960199375E1,2.656702101E-1,-1.304169595E-1,8.945130348E0
1.961199375E1,1.827542186E-1,1.666364376E-3,8.823811531E0
1.962400625E1,1.857134402E-1,1.593485028E-1,8.762759209E0
1.963599219E1,2.824774981E-1,2.384912223E-1,8.706801414E0
1.964599375E1,3.311181068E-1,2.243558466E-1,8.743721008E0
1.965599375E1,3.822390735E-1,1.617714167E-1,8.910596848E0
1.966599375E1,3.506930768E-1,1.004415527E-1,9.074196815E0
1.967599375E1,2.813569903E-1,8.365340531E-2,9.293706894E0
1.968799219E1,1.374463290E-1,1.470327079E-1,9.516348839E0
1.969799219E1,-1.149216783E-3,2.384337634E-1,9.608390808E0
1.970799219E1,-1.183118746E-1,3.333303332E-1,9.497588158E0
1.971799375E1,-1.058907583E-1,4.050797820E-1,9.387300491E0
1.972999219E1,-5.672342703E-2,4.812536836E-1,9.267035484E0
1.973999219E1,-3.041593917E-2,5.197428465E-1,9.097315788E0
1.974999219E1,1.439394057E-2,5.577723980E-1,9.039308548E0
1.975999219E1,-5.440583825E-2,5.835818648E-1,9.098359108E0
1.976999375E1,-9.264602512E-2,5.939918756E-1,9.186552048E0
1.977999375E1,-2.446874045E-2,6.171389818E-1,9.286111832E0
1.979199219E1,-8.279149979E-2,7.238820791E-1,9.428969383E0
1.980199375E1,-5.504748598E-2,7.938885689E-1,9.480005264E0
1.981199375E1,3.244622052E-2,9.074790478E-1,9.494015694E0
1.982399219E1,1.881076396E-1,1.008686781E0,9.501102448E0
1.983399375E1,2.828701437E-1,1.052692175E0,9.404845238E0
1.984399375E1,3.445064723E-1,1.005344391E0,9.370235443E0
1.985599375E1,4.653657973E-1,8.609453440E-1,9.636450768E0
1.986599375E1,4.217434227E-1,7.790732384E-1,9.865288734E0
1.987599375E1,3.404554725E-1,8.263251781E-1,9.976236343E0
1.988799375E1,2.455397546E-1,8.977010846E-1,9.877978325E0
1.989799375E1,1.646348834E-1,1.047807932E0,9.818419456E0
1.990999375E1,1.476647854E-1,1.261840105E0,9.713774681E0
1.991999375E1,9.723332524E-2,1.399535418E0,9.690224648E0
1.992999375E1,7.650911063E-2,1.518316507E0,9.730466843E0
1.994199375E1,1.402044483E-2,1.566066504E0,9.815115929E0
1.995199375E1,2.216073126E-2,1.568020105E0,9.959409714E0
1.996399219E1,7.097371668E-2,1.495743990E0,1.012045288E1
1.997399375E1,1.282909065E-1,1.422299385E0,1.030770874E1
1.998399375E1,1.293347776E-1,1.361601710E0,1.055951214E1
1.999599375E1,2.580757737E-1,1.289086103E0,1.092186928E1
2.000599375E1,3.209858537E-1,1.209512472E0,1.110413456E1
2.001599375E1,4.562294781E-1,1.108879328E0,1.129569054E1
2.002799375E1,4.537107944E-1,1.024852395E0,1.137040806E1
2.003799375E1,3.304477334E-1,9.997515678E-1,1.133419800E1
2.004799375E1,1.549718976E-1,1.020897150E0,1.130218315E1
2.005999375E1,1.659086049E-1,1.044638038E0,1.130849457E1
2.006999375E1,1.215392500E-1,1.336041093E0,1.122840309E1
2.007999375E1,-1.854931712E-1,1.584492326E0,1.100758171E1
2.009199375E1,-4.705276787E-1,1.473975897E0,1.081826782E1
2.010199375E1,-5.029259920E-1,1.258363605E0,1.098656082E1
2.011399375E1,-3.901399672E-1,9.066458941E-1,1.126537991E1
2.012400625E1,-2.287899107E-1,4.481945634E-1,1.133008099E1
2.013599219E1,-9.532754123E-2,9.712797403E-2,1.148725510E1
2.014599375E1,-9.265560657E-2,8.534850180E-2,1.146747017E1
2.015599375E1,-4.750096053E-2,2.573383749E-1,1.110169315E1
2.016799375E1,-1.254561730E-2,4.133349955E-1,1.035283470E1
2.017799375E1,-6.797617674E-2,3.646752238E-1,9.827613831E0
2.018799375E1,-5.244259164E-2,4.101746529E-2,9.684727669E0
2.019999375E1,1.195281222E-1,-4.077996016E-1,1.000937176E1
2.020999375E1,2.742318809E-1,-6.479092836E-1,1.034280777E1
2.022199219E1,4.676450491E-1,-7.166228890E-1,1.041832161E1
2.023199375E1,3.801034689E-1,-5.972288251E-1,1.033810520E1
2.024199375E1,1.954051703E-1,-4.722132087E-1,1.006313610E1
2.025199375E1,1.584770083E-1,-3.641772568E-1,9.789536476E0
2.026399375E1,2.715407610E-1,-3.837713897E-1,9.403160095E0
2.027399375E1,2.978674173E-1,-4.843949080E-1,9.287549019E0
2.028599375E1,2.317299992E-1,-5.959455371E-1,9.433289528E0
2.029599375E1,2.427720428E-1,-7.866485119E-1,9.490203857E0
2.030799219E1,2.636111677E-1,-8.606005907E-1,9.624863625E0
2.031799375E1,1.461037546E-1,-8.705125451E-1,9.659569740E0
2.032999219E1,-4.650497437E-2,-8.436592221E-1,9.583146095E0
2.033999375E1,-2.470816225E-1,-8.533318043E-1,9.571050644E0
2.034999375E1,-4.081730843E-1,-8.266412616E-1,9.548727989E0
2.035999375E1,-4.686123133E-1,-7.808449864E-1,9.447528839E0
2.037199375E1,-4.918648005E-1,-7.052839398E-1,9.296751976E0
2.038199375E1,-4.522838295E-1,-6.741018891E-1,9.278939247E0
2.039399219E1,-4.081156254E-1,-6.473538280E-1,9.354443550E0
2.040399375E1,-2.437488884E-1,-5.867326856E-1,9.511359215E0
2.041399375E1,-1.764718145E-1,-4.718875587E-1,9.621769905E0
2.042599375E1,-5.966350436E-3,-2.751799524E-1,9.683559418E0
2.043599375E1,1.677760780E-1,-2.076826394E-1,9.594265938E0
2.044599375E1,2.722207308E-1,-1.728996783E-1,9.532600403E0
2.045799375E1,4.698956013E-1,-2.413451076E-1,9.558151245E0
2.046799375E1,5.436082482E-1,-2.619160712E-1,9.568695068E0
2.047799375E1,5.175402164E-1,-2.124039978E-1,9.608880043E0
2.048999375E1,4.792425632E-1,-7.965987921E-2,9.514557838E0
2.050199219E1,4.289930761E-1,7.390422374E-2,9.529785156E0
2.051199844E1,3.626832664E-1,1.782818288E-1,9.613180161E0
2.052399219E1,2.871605456E-1,2.360108346E-1,9.573244095E0
2.053399219E1,2.217318118E-1,2.131893039E-1,9.319363594E0
2.054399375E1,1.666556001E-1,1.769123524E-1,9.117235184E0
2.055399375E1,2.210326940E-1,9.787496179E-2,9.002331734E0
2.056599219E1,1.751885265E-1,1.068580076E-1,8.893358231E0
2.057599375E1,5.790137500E-2,2.175467312E-1,8.659291267E0
2.058599375E1,-8.423759788E-2,3.874010146E-1,8.501915932E0
2.059799375E1,-2.613319159E-1,5.525147319E-1,8.478902817E0
2.060799375E1,-3.027994633E-1,6.165069342E-1,8.533567429E0
2.061799375E1,-1.640794426E-1,6.817536950E-1,8.645127296E0
2.062999375E1,-1.652477980E-1,5.615360737E-1,8.467898369E0
2.063999375E1,-1.240675375E-1,4.920946360E-1,8.536813736E0
2.064999375E1,-3.063620627E-2,3.242132366E-1,8.616243362E0
2.066199375E1,6.653007865E-2,2.474646866E-1,9.145496368E0
2.067199375E1,9.707050771E-2,2.910104394E-1,9.476211548E0
2.068399375E1,1.137628853E-1,4.458673894E-1,9.576931953E0
2.069399375E1,1.454525441E-1,6.484072804E-1,9.573321342E0
2.070399375E1,1.760504395E-1,8.338142633E-1,9.616215706E0
2.071599375E1,1.475115567E-1,1.017650604E0,9.434504509E0
2.072599375E1,1.480670124E-1,1.100403786E0,9.312525749E0
2.073799219E1,1.307617128E-1,1.159071326E0,9.361080170E0
2.074799375E1,2.798342891E-2,1.151563168E0,9.362056732E0
2.075799375E1,-4.210921749E-2,1.174375176E0,9.667384148E0
2.076799375E1,-1.082849577E-1,1.159013867E0,9.925575256E0
2.077999375E1,-5.337154493E-2,1.162739277E0,1.012574863E1
2.079199219E1,3.982036188E-2,1.177075863E0,1.013647556E1
2.080199375E1,6.754522026E-2,1.065687895E0,1.024782562E1
2.081199375E1,3.724420071E-2,1.039686918E0,1.060602665E1
2.082199375E1,2.898899466E-2,9.288928509E-1,1.097711849E1
2.083399375E1,-1.225448251E-1,9.101988673E-1,1.111101151E1
2.084399375E1,-2.733125091E-1,9.504405856E-1,1.114857101E1
2.085599375E1,-2.717706263E-1,9.635320902E-1,1.140365887E1
2.086599375E1,-2.497631162E-1,9.289789796E-1,1.151659870E1
2.087599375E1,-1.264904588E-1,9.291226268E-1,1.147154903E1
2.088799375E1,-3.222595528E-2,9.608314037E-1,1.148408508E1
2.089799375E1,1.297657285E-2,1.137197852E0,1.152082253E1
2.090999219E1,8.504204452E-3,1.451930046E0,1.140727901E1
2.091999375E1,-1.655351073E-1,1.581130862E0,1.118856430E1
2.092999375E1,-2.315863520E-1,1.468335152E0,1.111741829E1
2.094199375E1,4.432146251E-2,1.056436777E0,1.147834873E1
2.095199375E1,1.931067407E-1,6.418280005E-1,1.174245834E1
2.096399219E1,2.827360630E-1,2.704202831E-1,1.173262310E1
2.097399375E1,2.972161770E-1,4.367981851E-2,1.154022503E1
2.098399375E1,3.044371009E-1,-2.130169123E-1,1.142538834E1
2.099599219E1,3.106620610E-1,-4.640729129E-1,1.147321606E1
2.100599375E1,2.145587802E-1,-5.588449836E-1,1.150126648E1
2.101599375E1,1.844014078E-1,-6.565475464E-1,1.135540104E1
2.102799375E1,3.419494629E-1,-7.717948556E-1,1.098660851E1
2.103799375E1,5.560581088E-1,-8.304432631E-1,1.054606533E1
2.104999219E1,6.962817311E-1,-7.649666071E-1,1.008788300E1
2.105999375E1,7.480156422E-1,-6.893385649E-1,9.702933311E0
2.106999375E1,8.221113682E-1,-6.024481654E-1,9.499981880E0
2.107999375E1,7.202716470E-1,-5.405628681E-1,9.387741089E0
2.109199375E1,5.909847617E-1,-3.896419704E-1,9.426393509E0
2.110199375E1,3.667821288E-1,-2.807345390E-1,9.351042747E0
2.111399375E1,2.017258555E-1,-1.409322768E-1,9.354395866E0
2.112400625E1,3.049829900E-1,-1.106216982E-1,9.345450401E0
2.113599219E1,4.794436693E-1,-1.497620940E-1,9.168872833E0
2.114599375E1,5.922105908E-1,-2.149418443E-1,9.026715279E0
2.115599375E1,7.689217925E-1,-3.337421119E-1,9.018402100E0
2.116799375E1,9.602856040E-1,-5.078389049E-1,9.011363029E0
2.117799375E1,1.003946185E0,-5.810248256E-1,9.004755974E0
2.118799375E1,9.683588147E-1,-6.438295841E-1,9.113777161E0
2.119999375E1,8.658103347E-1,-5.988281369E-1,9.363196373E0
2.120999375E1,6.729334593E-1,-5.308040977E-1,9.514049530E0
2.122199219E1,6.695624590E-1,-4.958200157E-1,9.513810158E0
2.123199375E1,6.384761333E-1,-4.872870743E-1,9.502797127E0
2.124199375E1,5.052723289E-1,-4.981854856E-1,9.576826096E0
2.125399375E1,4.956572354E-1,-6.107416749E-1,9.646219254E0
2.126399375E1,5.202217698E-1,-7.156077027E-1,9.612796783E0
2.127399375E1,5.372492671E-1,-7.712681293E-1,9.602386475E0
2.128599375E1,5.617371798E-1,-6.846171618E-1,9.492540359E0
2.129599375E1,5.883032084E-1,-4.755171835E-1,9.363904953E0
2.130799219E1,5.036538243E-1,-7.386591285E-2,8.980536461E0
2.131799375E1,3.220201433E-1,3.093883097E-1,8.653229713E0
2.132799375E1,1.379251778E-1,5.316564441E-1,8.452298164E0
2.133999375E1,1.175170019E-1,6.390315890E-1,8.563436508E0
2.134999375E1,1.263180822E-1,6.126762033E-1,8.644150734E0
2.135999375E1,1.976557225E-1,4.541321695E-1,8.803220749E0
2.137199375E1,3.753725290E-1,2.138213664E-1,9.043148041E0
2.138199375E1,5.428325534E-1,1.000489071E-1,9.101653099E0
2.139399219E1,6.251451969E-1,1.113399565E-1,9.112006187E0
2.140399375E1,5.775005817E-1,2.255529463E-1,9.088246346E0
2.141399375E1,4.865113497E-1,3.964414895E-1,9.094451904E0
2.142599375E1,3.052224219E-1,6.303645372E-1,9.025011063E0
2.143599375E1,1.377623528E-1,7.371555567E-1,8.873217583E0
2.144599375E1,1.147971824E-1,7.657806277E-1,8.855203629E0
2.145799375E1,1.247187555E-1,7.350486517E-1,8.967252731E0
2.146799375E1,1.029506773E-1,6.448639035E-1,9.116727829E0
2.147999219E1,1.694903225E-1,4.335420430E-1,9.286725998E0
2.148999375E1,3.523307145E-1,2.899378240E-1,9.477428436E0
2.149999375E1,4.265892804E-1,2.437584698E-1,9.588049889E0
2.151199375E1,4.209964275E-1,3.589866161E-1,9.627266884E0
2.152199375E1,3.414227366E-1,5.957826972E-1,9.687773705E0
2.153199375E1,3.041115105E-1,8.156279325E-1,9.660737991E0
2.154399375E1,1.218074039E-1,1.074852943E0,9.536325455E0
2.155399375E1,9.567230195E-2,1.120400190E0,9.504473686E0
2.156599219E1,1.163390502E-1,1.037838459E0,9.676510811E0
2.157599375E1,1.043297350E-1,9.212121964E-1,9.852139473E0
2.158599375E1,1.673355401E-1,8.309316635E-1,9.985898972E0
2.159799375E1,2.124423087E-1,7.514632940E-1,1.014736462E1
2.160799375E1,2.282919139E-1,8.005061150E-1,1.024863911E1
2.161799375E1,2.392669320E-1,9.132059813E-1,1.017672634E1
2.162999375E1,1.979334354E-1,1.095893145E0,1.003749943E1
2.164199219E1,1.450311542E-1,1.201333761E0,1.001032066E1
2.165199219E1,9.458054602E-2,1.260221601E0,9.911343575E0
2.166199375E1,5.931873992E-2,1.306084991E0,9.855070114E0
2.167199375E1,2.343444712E-2,1.262385964E0,9.983102798E0
2.168199375E1,1.549239904E-1,1.203383207E0,1.009348488E1
2.169399375E1,2.878979743E-1,1.057202935E0,1.021752357E1
2.170399375E1,3.373717666E-1,8.796967268E-1,1.046825409E1
2.171599375E1,4.073686302E-1,7.409096956E-1,1.063773537E1
2.172599375E1,3.902740180E-1,6.866953969E-1,1.062133980E1
2.173799219E1,3.294900656E-1,6.245322824E-1,1.066684818E1
2.174799375E1,4.223180115E-1,6.445094943E-1,1.095472717E1
2.175799375E1,3.173658252E-1,7.636449933E-1,1.116003513E1
2.176999375E1,1.343913227E-1,1.056015372E0,1.090635490E1
2.177999375E1,-1.263085008E-1,1.049426556E0,1.072047806E1
2.178999375E1,-8.918880671E-2,8.752052188E-1,1.072259426E1
2.180199375E1,-9.306740761E-2,5.244163871E-1,1.158489037E1
2.181199375E1,3.431369737E-2,3.165613413E-1,1.229134274E1
2.182399219E1,3.889333010E-1,1.261073947E-1,1.234282780E1
2.183399375E1,4.490373135E-1,7.983226329E-2,1.199708557E1
2.184399375E1,3.333112001E-1,1.059003323E-1,1.177323818E1
2.185599375E1,2.757162750E-1,1.056321803E-2,1.171591091E1
2.186599375E1,2.353883386E-1,-1.428955346E-1,1.172416592E1
2.187599375E1,2.217030823E-1,-3.282450438E-1,1.158715153E1
2.188599375E1,1.504037529E-1,-5.784965754E-1,1.127645016E1
2.189599375E1,1.720952094E-1,-7.101872563E-1,1.116968822E1
2.190799219E1,1.565041840E-1,-7.838233113E-1,1.094495869E1
2.191799219E1,-8.223603666E-2,-7.577744126E-1,1.068160629E1
2.192799219E1,-2.405693829E-1,-6.975075603E-1,1.049743462E1
2.193799219E1,-3.263967335E-1,-6.136721969E-1,1.006894875E1
2.194799219E1,-3.204208016E-1,-4.704127610E-1,9.600854874E0
2.195799375E1,-3.124050200E-1,-3.532117903E-1,9.135344505E0
2.196799375E1,-2.823529840E-1,-2.382039130E-1,8.991979599E0
2.197999219E1,-3.713023663E-1,-1.601337940E-1,8.955214500E0
