"Time (s)","Gyroscope x (rad/s)","Gyroscope y (rad/s)","Gyroscope z (rad/s)"
7.473750000E-3,2.007128671E-2,-2.042035107E-3,4.118977115E-3
1.748312500E-2,2.761110850E-2,-7.051130291E-3,-2.443460980E-3
2.947375000E-2,3.152064607E-2,-7.120943163E-3,-8.709193207E-3
3.947375000E-2,2.761110850E-2,-8.970992640E-3,-5.724680144E-3
4.947375000E-2,2.185152285E-2,-9.529497474E-3,-6.928957067E-3
5.948156200E-2,1.350884791E-2,-6.492624991E-3,-5.201081280E-3
7.147375000E-2,9.826203808E-3,-7.871435024E-3,-6.981316983E-5
8.147375000E-2,5.672320258E-3,-3.630284918E-3,8.726646192E-4
9.147375000E-2,2.914699726E-3,-8.552113432E-4,-1.745329246E-5
1.014784370E-1,7.504915819E-3,-3.141592606E-4,3.647738136E-3
1.134737500E-1,1.741838641E-2,3.106686054E-3,2.007128671E-3
1.254862500E-1,2.551671304E-2,5.881759338E-3,-2.303834539E-3
1.374737500E-1,2.101376466E-2,6.632251199E-3,-3.455751808E-3
1.474737500E-1,9.651671164E-3,6.387905218E-3,2.338741207E-3
1.574737500E-1,1.129228063E-2,1.117010694E-2,5.131267942E-3
1.694737500E-1,8.848818950E-3,1.111774705E-2,8.831365965E-3
1.794737500E-1,1.082104165E-3,5.323254038E-3,1.371828746E-2
1.914737500E-1,-2.600540640E-3,-6.283185212E-4,1.338667516E-2
2.014878120E-1,-4.293509759E-3,-4.886921961E-3,9.372417815E-3
2.134721870E-1,-7.679448463E-4,-5.672320258E-3,7.470009383E-3
2.234737500E-1,3.438298590E-3,-2.042035107E-3,4.660028964E-3
2.334737500E-1,9.302604944E-3,2.146754880E-3,4.555309191E-3
2.434831250E-1,6.283185445E-3,-6.457717973E-4,4.328416660E-3
2.554737500E-1,1.375319436E-2,2.687806962E-3,8.726646192E-4
2.654737500E-1,1.832595654E-2,1.151917269E-3,2.094395168E-4
2.774862500E-1,2.923426405E-2,1.130973361E-2,-6.457718089E-3
2.894721870E-1,3.358013555E-2,-4.014257283E-4,-1.197295822E-2
2.994721870E-1,3.073524870E-2,-9.075712413E-3,-7.766715251E-3
3.094737500E-1,3.068288788E-2,-6.056292448E-3,-8.988445625E-3
3.194846870E-1,3.047344834E-2,-3.682644805E-3,-7.801621687E-3
3.314737500E-1,2.246238664E-2,-5.183627829E-3,-6.981316837E-4
3.414737500E-1,1.795943826E-2,-7.330382941E-4,1.012290944E-3
3.534784370E-1,5.724680144E-3,-3.141592606E-4,8.028514567E-4
3.654721870E-1,-4.991641734E-3,-1.570796361E-3,2.600540640E-3
3.754721870E-1,-3.839724232E-4,2.373647876E-3,9.773843922E-4
3.854721870E-1,5.986479111E-3,7.103490178E-3,6.283185212E-4
3.954831250E-1,8.621926419E-3,7.784168236E-3,1.745329238E-3
4.074721870E-1,9.407324716E-3,8.796459064E-3,-3.839724232E-4
4.174737500E-1,1.350884791E-2,5.829399452E-3,-3.682644805E-3
4.274737500E-1,1.574287005E-2,-1.466076588E-3,-1.104793418E-2
4.374784370E-1,9.354964830E-3,-9.686577134E-3,-1.310742274E-2
4.494737500E-1,4.136430100E-3,-1.527163107E-2,-1.499237865E-2
4.594737500E-1,-5.270894151E-3,-1.340412907E-2,-1.092576142E-2
4.714721870E-1,-1.553343050E-2,-6.754423957E-3,-1.151917269E-3
4.814737500E-1,-2.288126573E-2,-3.717551241E-3,3.106686054E-3
4.914737500E-1,-2.522000670E-2,-3.508111695E-3,2.460914198E-3
5.034737500E-1,-2.207841538E-2,1.169370604E-3,-5.270894151E-3
5.134737500E-1,-1.267109066E-2,5.201081280E-3,-9.302604944E-3
5.234737500E-1,-3.892084118E-3,5.340707488E-3,-1.565560326E-2
5.334784370E-1,3.839724232E-3,6.684611086E-3,-1.886700839E-2
5.454737500E-1,2.727949619E-2,1.237438433E-2,-1.542871073E-2
5.574721870E-1,3.832742944E-2,1.045452245E-2,-1.830850355E-2
5.674768750E-1,3.588397056E-2,7.627088577E-3,-1.900663599E-2
5.794721870E-1,3.434807807E-2,9.808750823E-3,-1.904154196E-2
5.894737500E-1,3.155555204E-2,1.687733456E-2,-1.267109066E-2
5.994737500E-1,1.722639985E-2,2.295107953E-2,-5.410520826E-3
6.094737500E-1,-1.296779606E-2,9.145525284E-3,-2.042035107E-3
6.214737500E-1,-3.059562109E-2,6.911503617E-3,7.470009383E-3
6.314737500E-1,-2.581341937E-2,1.670280099E-2,1.237438433E-2
6.434721870E-1,-2.181661502E-2,1.984439418E-2,1.073377486E-2
6.534737500E-1,-1.954768784E-2,1.232202444E-2,1.151917269E-3
6.634737500E-1,-1.246165112E-2,9.808750823E-3,-4.642575979E-3
6.734737500E-1,-3.839724232E-3,1.389282104E-2,-6.754423957E-3
6.834737500E-1,-5.096361507E-3,1.396263391E-2,-7.312929723E-3
6.934737500E-1,-5.410520826E-3,1.172861271E-2,-9.512044489E-3
7.054737500E-1,-6.387905218E-3,1.652826741E-2,-3.508111695E-3
7.154737500E-1,-5.794493016E-3,1.830850355E-2,-5.986479111E-3
7.274721870E-1,-1.158898603E-2,1.569050923E-2,-8.901178837E-3
7.374721870E-1,-8.569566533E-3,1.731366664E-2,-1.274090353E-2
7.474721870E-1,-3.944444004E-3,2.775073424E-2,-8.237954229E-3
7.574721870E-1,-8.447393775E-3,3.145083413E-2,-6.457717973E-4
7.674721870E-1,-1.183333248E-2,2.483603545E-2,-2.443460980E-4
7.774737500E-1,-1.583013684E-2,2.059488557E-2,-8.377580671E-4
7.874737500E-1,-1.832595654E-2,1.502728462E-2,-2.024581889E-3
7.994721870E-1,-1.188569237E-2,1.246165112E-2,-1.972222002E-3
8.094737500E-1,-3.211405827E-3,1.193805225E-2,-2.042035107E-3
8.194737500E-1,6.981316954E-3,1.558579039E-2,-4.433136433E-3
8.314737500E-1,1.340412907E-2,1.022762898E-2,-1.027998887E-2
8.414737500E-1,2.150245570E-2,6.300638430E-3,-1.130973361E-2
8.514737500E-1,2.638937905E-2,1.754055917E-2,-8.360126987E-3
8.634737500E-1,2.439970337E-2,2.047271281E-2,-4.886921961E-3
8.734737500E-1,1.556833647E-2,2.809980186E-3,-9.128072299E-3
8.854721870E-1,-1.692969352E-3,-1.338667516E-2,-1.542871073E-2
8.954737500E-1,-1.204277202E-2,-6.684611086E-3,-1.637118869E-2
9.054737500E-1,-1.649336144E-2,-6.440265104E-3,-1.787217148E-2
9.154737500E-1,-1.155408006E-2,-4.712388851E-3,-2.251474746E-2
9.254737500E-1,-1.071632188E-2,-7.976154797E-3,-2.888519876E-2
9.354737500E-1,-1.197295822E-2,-6.352998316E-3,-3.071779385E-2
9.454737500E-1,-1.738347858E-2,-2.293362655E-2,-3.698352724E-2
9.574721870E-1,-1.893682219E-2,-2.277654596E-2,-3.275983036E-2
9.674737500E-1,-1.591740362E-2,-5.916666240E-3,-2.532472648E-2
9.774737500E-1,-1.286307629E-2,2.949606394E-3,-2.944370359E-2
9.894721870E-1,-1.785471849E-2,-2.146754880E-3,-3.684389964E-2
9.994721870E-1,-2.160717547E-2,-7.365289610E-3,-4.394739121E-2
1.009472187E0,-2.401573025E-2,-5.654866807E-3,-5.569345504E-2
1.019473750E0,-2.342231758E-2,4.722860828E-2,-6.524040550E-2
1.029473750E0,-2.125811018E-2,5.981243402E-2,-4.384266958E-2
1.041472187E0,-1.237438433E-2,5.099852011E-2,-4.330161959E-2
1.051473750E0,-4.188790335E-4,6.454227865E-2,-6.038839370E-2
1.061473750E0,1.247910410E-2,5.754350498E-2,-6.714281440E-2
1.073472187E0,1.045452245E-2,2.787290886E-2,-8.597491682E-2
1.083473750E0,-2.234021435E-3,6.126105785E-3,-8.045967668E-2
1.093473750E0,-1.125737373E-2,7.714355364E-3,-6.801547855E-2
1.105473750E0,-1.202531811E-2,3.558726236E-2,-5.633922666E-2
1.115473750E0,1.972222002E-3,3.513347730E-2,-5.113814771E-2
1.125486250E0,-5.235987483E-4,2.682571113E-2,-5.164429173E-2
1.137473750E0,-4.520402756E-3,1.729621366E-2,-6.056292355E-2
1.147473750E0,-2.094395168E-4,1.324704941E-2,-6.827727705E-2
1.159473750E0,1.188569237E-2,2.038544603E-2,-7.787659019E-2
1.171472187E0,2.967059799E-2,4.157374427E-2,-7.878416032E-2
1.181472187E0,3.090978041E-2,4.639085010E-2,-7.592181861E-2
1.191473750E0,1.771509275E-2,3.319616243E-2,-6.946410239E-2
1.201473750E0,2.651155181E-2,5.586798862E-2,-5.873033032E-2
1.213472187E0,2.713987045E-2,3.872885555E-2,-6.340780854E-2
1.223473750E0,6.056292448E-3,3.752457723E-2,-5.843362212E-2
1.233473750E0,-5.550147034E-3,4.171336815E-2,-4.297000542E-2
1.245473750E0,-1.288053021E-2,3.872885555E-2,-3.886848316E-2
1.255473750E0,-8.709193207E-3,3.776892647E-2,-3.309144080E-2
1.265473750E0,-1.937315450E-3,4.035201296E-2,-2.537708730E-2
1.277473750E0,-3.647738136E-3,3.975860029E-2,-1.296779606E-2
1.287473750E0,-1.445132587E-2,2.996730246E-2,-8.499753661E-3
1.299472187E0,-1.364847459E-2,2.162462845E-2,2.303834539E-3
1.309515937E0,-1.298524998E-2,3.549999744E-2,1.104793418E-2
1.321472187E0,-9.215338156E-3,5.492551252E-2,1.434660610E-2
1.331473750E0,-1.677261479E-2,3.876376152E-2,1.413716655E-2
1.341473750E0,-2.462659590E-2,3.019419685E-2,8.709193207E-3
1.351473750E0,-2.597049996E-2,2.759365551E-2,6.754423957E-3
1.363473750E0,-4.642575979E-3,3.441789374E-2,1.179842558E-2
1.373473750E0,5.619960371E-3,3.096214123E-2,1.122246683E-2
1.385472187E0,1.748819835E-2,4.218460619E-2,1.258382387E-2
1.395473750E0,1.790707745E-2,2.745402977E-2,1.424188633E-2
1.405473750E0,-1.291543595E-3,1.848303713E-2,1.991420612E-2
1.417473750E0,-2.267182618E-2,2.118829638E-2,2.227040194E-2
1.427473750E0,-3.405137360E-2,1.535889693E-2,1.923352852E-2
1.437473750E0,-4.345869645E-2,8.709193207E-3,2.270673402E-2
1.447473750E0,-3.410373256E-2,2.303834632E-2,2.125811018E-2
1.459473750E0,-2.448697016E-2,2.558652684E-2,2.263692021E-2
1.471472187E0,-2.961823717E-2,2.731440216E-2,2.281145379E-2
1.481473750E0,-4.253367335E-2,2.607521974E-2,2.401573025E-2
1.491473750E0,-5.260422453E-2,1.708677411E-2,2.246238664E-2
1.503473750E0,-6.255260110E-2,1.340412907E-2,1.679006778E-2
1.513473750E0,-5.832890421E-2,1.415462047E-2,6.562437862E-3
1.523473750E0,-5.420992523E-2,1.733111963E-2,-2.914699726E-3
1.535473750E0,-5.157447979E-2,8.220500313E-3,-1.359611470E-2
1.545473750E0,-5.323254317E-2,-9.738937020E-3,-2.881538495E-2
1.557472187E0,-7.202973962E-2,-2.768092230E-2,-3.396410868E-2
1.567473750E0,-7.642796636E-2,-2.593559213E-2,-2.823942713E-2
1.577473750E0,-5.918411538E-2,-1.457349956E-2,-1.153662615E-2
1.587473750E0,-4.459316283E-2,-1.317723561E-2,1.513200440E-2
1.597473750E0,-4.125958309E-2,-9.564404376E-3,3.600614145E-2
1.607473750E0,-5.914920941E-2,-1.113520097E-2,4.845033959E-2
1.619473750E0,-5.708971992E-2,-2.024581889E-3,5.026548356E-2
1.629473750E0,-6.101670861E-2,-1.076868176E-2,5.321509019E-2
1.641472187E0,-6.269222498E-2,-2.509783395E-2,4.288274050E-2
1.651473750E0,-6.974335760E-2,-5.227261037E-2,4.806636646E-2
1.663473750E0,-6.628760695E-2,-5.408775434E-2,6.726498902E-2
1.675473750E0,-3.857177496E-2,-3.724532574E-2,6.445501000E-2
1.685473750E0,-1.570796361E-3,-4.003785178E-2,4.708898440E-2
1.695473750E0,1.932079531E-2,-5.365142226E-2,3.413863853E-2
1.707473750E0,2.862340026E-2,-5.787511915E-2,-8.028514567E-4
1.717473750E0,4.792674258E-2,-3.122393973E-2,-3.618067503E-2
1.729472187E0,7.527604699E-2,-1.741838641E-2,-6.654940546E-2
1.739473750E0,6.621779501E-2,-1.626646891E-2,-8.337438107E-2
1.749473750E0,5.743878707E-2,-1.429424621E-2,-8.683013171E-2
1.761473750E0,4.122467712E-2,-1.850049011E-3,-3.408627957E-2
1.771473750E0,3.214896470E-2,-1.815142459E-3,2.652900526E-3
1.781473750E0,2.940879762E-2,-1.045452245E-2,2.637192421E-2
1.793473750E0,3.857177496E-2,-3.415609151E-2,3.352777660E-2
1.803473750E0,4.921828583E-2,-4.466297477E-2,1.961750165E-2
1.815472187E0,4.455825686E-2,-4.651302472E-2,3.839724232E-3
1.825473750E0,5.927138031E-2,-3.415609151E-2,-2.106612362E-2
1.835473750E0,8.834856749E-2,-2.638937905E-2,-5.291838199E-2
1.847473750E0,9.199630469E-2,-1.328195538E-2,-8.883725852E-2
1.857473750E0,9.183922410E-2,5.288347602E-3,-9.909979254E-2
1.867473750E0,7.157595456E-2,0.000000000E0,-5.763076991E-2
1.877473750E0,4.221951589E-2,-4.660028964E-3,8.115780540E-3
1.889473750E0,1.069886796E-2,-1.361356815E-3,3.665191308E-2
1.901472187E0,-5.462880712E-3,-7.993607782E-3,4.724606127E-2
1.911473750E0,-2.448697016E-2,-4.269075394E-2,7.262314856E-2
1.921473750E0,-5.099852011E-2,-3.036872856E-2,8.950048685E-2
1.933473750E0,-5.728170648E-2,1.167625282E-2,1.044579521E-1
1.945472187E0,-5.478588492E-2,1.879719645E-2,1.089259982E-1
1.955472187E0,-5.380849913E-2,9.599311277E-3,1.005309671E-1
1.965473750E0,-8.686503768E-2,-1.282817032E-2,8.873254061E-2
1.977473750E0,-1.043008789E-1,-2.275909297E-2,7.754497975E-2
1.989472187E0,-9.632471949E-2,-2.679080330E-2,6.642723083E-2
1.999472187E0,-7.618362457E-2,-1.322959550E-2,4.591961205E-2
2.009472187E0,-5.145230517E-2,-3.979350906E-3,4.207988828E-2
2.019473750E0,-3.886848316E-2,-3.926991019E-3,2.775073424E-2
2.029473750E0,-2.143264376E-2,9.494591504E-3,3.577925032E-3
2.041473750E0,-3.141592722E-3,1.185078546E-2,-3.024655581E-2
2.051473750E0,1.391027402E-2,4.040437192E-2,-8.791223168E-2
2.061473750E0,1.869247667E-2,1.102699041E-1,-1.454906464E-1
2.071473750E0,1.281071641E-2,1.603259444E-1,-1.528559327E-1
2.083473750E0,-4.551818594E-2,1.667487621E-1,-8.925613761E-2
2.093473750E0,-1.080882400E-1,1.693143845E-1,-3.967133537E-2
2.105473750E0,-1.583188176E-1,1.177922711E-1,-2.574360557E-2
2.115473750E0,-1.744805574E-1,8.555603772E-2,-1.685987972E-2
2.125486250E0,-1.677086800E-1,5.159193277E-2,-9.494591504E-3
2.137473750E0,-1.388933063E-1,1.137954649E-2,-4.274311289E-2
2.147473750E0,-9.208357334E-2,-6.736970972E-3,-9.051277488E-2
2.157473750E0,-4.883431271E-2,-2.017600648E-2,-1.376890242E-1
2.169473750E0,-1.308996975E-2,9.180432186E-3,-1.545314491E-1
2.179473750E0,1.919862255E-2,2.459168993E-2,-1.502204835E-1
2.191473750E0,3.272492439E-2,2.658136375E-2,-1.269203424E-1
2.201473750E0,2.675589733E-2,3.241076320E-2,-9.915215522E-2
2.213472187E0,-8.255407214E-3,4.670501128E-2,-7.234390080E-2
2.223473750E0,-3.234095126E-2,3.214896470E-2,-5.337216705E-2
2.233473750E0,-2.989749052E-2,-2.216568217E-3,-6.578145921E-2
2.245472187E0,-2.096140385E-2,-4.607669078E-3,-9.089674801E-2
2.255473750E0,-2.722713631E-3,1.026253588E-2,-9.578366578E-2
2.265473750E0,5.113814492E-3,1.232202444E-2,-1.008276716E-1
2.277473750E0,-1.502728462E-2,4.080579802E-2,-9.573131055E-2
2.287473750E0,8.552113432E-4,6.663667411E-2,-7.751007378E-2
2.297476875E0,-1.595230959E-2,6.028367206E-2,-5.886995420E-2
2.307515937E0,-5.190609023E-2,5.663593486E-2,-5.813691765E-2
2.319473750E0,-8.627162129E-2,1.656317525E-2,-7.004006207E-2
2.331473750E0,-8.173377067E-2,2.036799304E-2,-8.737118542E-2
2.341473750E0,-6.272713095E-2,1.012290921E-2,-1.181936935E-1
2.351473750E0,-3.775146976E-2,1.965240762E-2,-1.469218135E-1
2.363473750E0,-3.659955412E-2,4.232423380E-2,-1.483878940E-1
2.373473750E0,-4.159119725E-2,5.361651629E-2,-1.487020552E-1
2.385472187E0,-4.248131439E-2,5.384340882E-2,-1.383871585E-1
2.395473750E0,-3.597123548E-2,5.091125518E-2,-1.269727051E-1
2.405473750E0,-3.892084211E-2,1.494001877E-2,-1.303761005E-1
2.417473750E0,-6.740461290E-2,-2.539454028E-2,-1.414414793E-1
2.427473750E0,-9.569640458E-2,-8.536405116E-2,-1.584235430E-1
2.437473750E0,-1.100953668E-1,-9.470156580E-2,-1.794198453E-1
2.449473750E0,-9.114108980E-2,-6.510077976E-3,-1.779188663E-1
2.459473750E0,-7.759733498E-2,2.422516979E-2,-1.602037698E-1
2.471472187E0,-4.319689795E-2,3.888593614E-2,-1.639038622E-1
2.481473750E0,-4.715879634E-2,3.466223925E-2,-1.730493903E-1
2.491473750E0,-5.644394830E-2,1.916371472E-2,-1.789136976E-1
2.503473750E0,-5.525712296E-2,-7.661995478E-3,-1.919513047E-1
2.513473750E0,-8.229227364E-2,-4.642575979E-2,-1.981821358E-1
2.525472187E0,-9.026842564E-2,-3.445279971E-2,-1.932079494E-1
2.535473750E0,-4.132939503E-2,-3.274237737E-2,-1.914626211E-1
2.545473750E0,-2.464404888E-2,-4.728097096E-2,-1.911833584E-1
2.557472187E0,-3.570943698E-2,-2.918190509E-2,-1.847780049E-1
2.567473750E0,1.518436428E-2,6.108652335E-3,-1.781457514E-1
2.577473750E0,8.049458265E-2,-8.744099177E-3,-1.753881425E-1
2.587473750E0,5.208062381E-2,-5.305800959E-2,-1.720894575E-1
2.597473750E0,4.557054490E-2,-5.454153940E-2,-1.828406900E-1
2.609473750E0,7.625343651E-2,-3.361504152E-2,-1.725257933E-1
2.621473750E0,1.025904566E-1,-3.923500329E-2,-1.680053920E-1
2.631473750E0,9.854128957E-2,-4.111995548E-2,-1.730493903E-1
2.643472187E0,6.869615614E-2,-5.860815570E-2,-1.662077010E-1
2.653473750E0,6.049311161E-2,-3.700098023E-2,-1.639562249E-1
2.663473750E0,7.726572454E-2,1.541125681E-2,-1.529432088E-1
2.675473750E0,2.220058814E-2,3.673918173E-2,-1.270425171E-1
2.685473750E0,-1.336922217E-2,3.424336016E-2,-1.357167959E-1
2.695473750E0,-5.653121322E-2,1.977458037E-2,-1.468694508E-1
2.707473750E0,-7.700392604E-2,-7.295476273E-3,-1.544965506E-1
2.717473750E0,-5.644394830E-2,-2.724459022E-2,-1.694889218E-1
2.729472187E0,-4.482005537E-2,-6.623524427E-2,-1.728225052E-1
2.739473750E0,-5.408775434E-2,-1.057669520E-1,-1.528908461E-1
2.751472187E0,-4.214970022E-2,-7.490953058E-2,-1.470439881E-1
2.761473750E0,-1.652826741E-2,-6.002187356E-2,-1.478642970E-1
2.771473750E0,-5.183627829E-3,-7.578219473E-2,-1.496270746E-1
2.781473750E0,6.178465672E-3,-4.649557173E-2,-1.591042131E-1
2.793473750E0,-2.033308521E-2,-6.969099492E-2,-1.647590846E-1
2.803473750E0,-1.216494478E-2,-9.704030305E-2,-1.975189149E-1
2.815472187E0,3.303908184E-2,-8.707447350E-2,-2.246762365E-1
2.825473750E0,5.914920941E-2,-5.021312088E-2,-2.152165473E-1
2.835473750E0,9.231046587E-2,-3.078760765E-2,-1.886177361E-1
2.847473750E0,1.149299294E-1,-7.009242475E-2,-1.758593768E-1
2.857473750E0,8.508480340E-2,-9.051277488E-2,-1.609717160E-1
2.867473750E0,5.934119597E-2,-7.995353639E-2,-1.481260955E-1
2.877473750E0,5.874778330E-2,-2.951351739E-2,-1.524545103E-1
2.889473750E0,6.562437862E-2,1.151917316E-2,-1.761386245E-1
2.901472187E0,5.070181563E-2,1.867502346E-3,-2.090031803E-1
2.911473750E0,3.303908184E-2,5.707226694E-3,-2.293013632E-1
2.923472187E0,1.595230959E-2,1.291543618E-2,-2.455852777E-1
2.933473750E0,4.188789986E-3,7.330382941E-4,-2.354274690E-1
2.943473750E0,1.003564335E-2,-1.256637042E-3,-2.182534188E-1
2.953473750E0,2.712241560E-2,7.731808349E-3,-2.003637999E-1
2.965473750E0,6.932447851E-2,3.019419499E-3,-1.769065708E-1
2.975473750E0,1.081406027E-1,-8.918632753E-3,-1.622108966E-1
2.987472187E0,1.465029418E-1,4.293509759E-3,-1.621934474E-1
2.997473750E0,1.657015532E-1,5.951572675E-3,-1.739918739E-1
3.007473750E0,1.511978656E-1,-2.251474652E-3,-1.805019528E-1
3.019473750E0,1.077566296E-1,-2.574360557E-2,-1.880243123E-1
3.029473750E0,8.107054234E-2,-4.169591516E-2,-1.822647303E-1
3.039473750E0,5.935864896E-2,-1.881464943E-2,-1.624726951E-1
3.051473750E0,2.848377265E-2,-1.216494478E-2,-1.409353316E-1
3.063472187E0,-8.552113548E-3,-1.879719645E-2,-1.239881888E-1
3.073472187E0,-2.331759781E-2,-2.809980186E-3,-1.080707833E-1
3.083476875E0,-4.035201296E-2,1.071632188E-2,-9.243264049E-2
3.095472187E0,-7.175048441E-2,-1.286307629E-2,-8.597491682E-2
3.105473750E0,-9.787806123E-2,-3.368485346E-2,-8.576548100E-2
3.115473750E0,-1.033583954E-1,-4.701916873E-2,-8.124507964E-2
3.125486250E0,-9.473647177E-2,-3.820525855E-2,-6.754424423E-2
3.137473750E0,-7.639306039E-2,-1.586504281E-2,-3.352777660E-2
3.147473750E0,-6.972590089E-2,-4.904375412E-3,-1.193805225E-2
3.157473750E0,-6.993534416E-2,-2.464404888E-2,2.984513063E-3
3.169473750E0,-6.026621908E-2,-4.967207089E-2,1.507964451E-2
3.179473750E0,-4.462806880E-2,-5.506513640E-2,2.087413706E-2
3.191473750E0,-4.761258140E-2,-4.054399952E-2,3.747221828E-2
3.201473750E0,-4.607669264E-2,-3.392919898E-2,5.089380220E-2
3.211473750E0,-5.576327071E-2,-2.434734255E-2,6.286676228E-2
3.223473750E0,-8.332201838E-2,5.480333697E-3,7.525859773E-2
3.233473750E0,-9.056513757E-2,2.597049996E-2,9.274679422E-2
3.245472187E0,-7.934267074E-2,3.663446009E-2,1.069363207E-1
3.255473750E0,-7.600908726E-2,3.316125646E-2,1.087863743E-1
3.265473750E0,-1.113345549E-1,1.134464052E-3,1.087165624E-1
3.277473750E0,-1.305506229E-1,-1.254891697E-2,1.060636565E-1
3.287473750E0,-1.263967454E-1,1.148426626E-2,1.059763953E-1
3.299472187E0,-1.485275179E-1,2.279400080E-2,1.058367640E-1
3.309473750E0,-1.671501845E-1,4.464552179E-2,1.047546640E-1
3.319473750E0,-1.752310544E-1,5.988224596E-2,1.013512686E-1
3.331472187E0,-1.642703861E-1,6.424556673E-2,1.004786044E-1
3.341473750E0,-1.443212777E-1,5.614724010E-2,9.583602846E-2
3.351473750E0,-1.367290914E-1,7.470009383E-3,8.986700326E-2
3.363473750E0,-1.248608530E-1,-3.979350626E-2,7.480481267E-2
3.373473750E0,-8.714429289E-2,-4.626867920E-2,6.424556673E-2
3.385472187E0,-3.714060783E-2,-5.330235511E-2,5.946336687E-2
3.395473750E0,-1.134464052E-2,-4.996877536E-2,6.640977412E-2
3.405473750E0,8.970992640E-3,-3.546509147E-2,6.546729803E-2
3.417472187E0,3.577924892E-2,-2.017600648E-2,6.230825558E-2
3.427473750E0,6.421066076E-2,-8.028514567E-4,6.958627701E-2
3.437473750E0,7.749261707E-2,4.345869645E-3,6.721262634E-2
3.447473750E0,7.251843065E-2,-2.583087189E-3,6.586872786E-2
3.459473750E0,6.138322875E-2,-1.111774705E-2,6.796312332E-2
3.471472187E0,4.865977913E-2,5.811946467E-3,7.632324845E-2
3.481473750E0,3.017674200E-2,3.188716620E-2,8.325220644E-2
3.491473750E0,5.462880712E-3,4.946263134E-2,9.442231059E-2
3.503473750E0,-1.366592757E-2,5.998696759E-2,1.148601174E-1
3.513473750E0,-2.033308521E-2,6.370452046E-2,1.287878454E-1
3.523473750E0,-2.097885683E-2,6.176720187E-2,1.333606094E-1
3.535473750E0,-2.611012571E-2,3.560471535E-2,1.323483139E-1
3.545473750E0,-1.947787404E-2,1.258382387E-2,1.236391217E-1
3.557472187E0,-1.935570128E-2,4.520402756E-3,1.306902468E-1
3.567473750E0,-1.453859266E-2,1.665044017E-2,1.256811619E-1
3.577473750E0,-1.146681327E-2,2.405063622E-2,1.146157682E-1
3.587473750E0,-1.223475765E-2,1.055924222E-2,1.119803265E-1
3.597473750E0,-1.075122785E-2,-2.251474652E-3,9.986773878E-2
3.609473750E0,1.308996929E-3,-1.666789502E-2,8.431685716E-2
3.621473750E0,1.404990070E-2,-3.406882659E-2,8.272860944E-2
3.631473750E0,1.644100063E-2,-4.160865024E-2,8.210028708E-2
3.643472187E0,7.923794910E-3,-2.689552307E-2,8.440412581E-2
3.653473750E0,-9.477137588E-3,-1.082104165E-2,9.094911069E-2
3.663473750E0,-3.235840425E-2,-1.099557430E-2,1.102175415E-1
3.675473750E0,-5.986479297E-2,-2.747148275E-2,1.170766875E-1
3.687472187E0,-7.651523501E-2,-4.471533373E-2,1.088212803E-1
3.697478437E0,-6.154030934E-2,-4.604178667E-2,9.749408811E-2
3.709472187E0,-1.577777602E-2,-3.923500329E-2,9.169960022E-2
3.719472187E0,1.097812131E-2,-5.630432069E-2,9.583602846E-2
3.729472187E0,2.242748067E-2,-5.714207888E-2,9.334021062E-2
3.739473750E0,1.787217148E-2,-4.562290758E-2,9.073966742E-2
3.749473750E0,8.831365965E-3,-2.076941729E-2,1.059938446E-1
3.761473750E0,-1.720894687E-2,-1.027998887E-2,1.245641485E-1
3.771473750E0,-4.567526653E-2,-3.508111695E-3,1.444958150E-1
3.781473750E0,-4.995132238E-2,1.937315450E-3,1.514771283E-1
3.793473750E0,-3.399901465E-2,-1.968731359E-2,1.475326866E-1
3.805472187E0,-1.029744279E-2,-7.260569930E-2,1.315105557E-1
3.815472187E0,-1.274090377E-3,-1.280722618E-1,1.067443341E-1
3.825473750E0,1.469567232E-2,-1.630137563E-1,9.248499572E-2
3.835473750E0,5.567600206E-2,-1.664171368E-1,1.037423685E-1
3.847473750E0,1.040041670E-1,-1.305506229E-1,1.328020990E-1
3.857473750E0,1.268156171E-1,-1.044055969E-1,1.529955566E-1
3.867473750E0,1.392423660E-1,-7.848745584E-2,1.655793786E-1
3.877473750E0,1.439023912E-1,-6.452482194E-2,1.741314977E-1
3.889473750E0,1.407258958E-1,-8.292059600E-2,1.698903441E-1
3.901472187E0,1.388583928E-1,-1.157502383E-1,1.639038622E-1
3.911473750E0,1.563989520E-1,-1.405164599E-1,1.643227488E-1
3.921473750E0,1.838355362E-1,-1.470614374E-1,1.632930040E-1
3.933473750E0,2.027199864E-1,-1.565211266E-1,1.784773618E-1
3.943473750E0,1.987929940E-1,-1.562244147E-1,1.952499896E-1
3.953473750E0,1.818807572E-1,-1.303586364E-1,1.986184716E-1
3.965473750E0,1.525417715E-1,-1.146506816E-1,2.020742148E-1
3.975473750E0,1.253670007E-1,-1.044230461E-1,1.952150762E-1
3.987472187E0,8.323474973E-2,-1.055051535E-1,1.803099662E-1
3.997473750E0,4.925319180E-2,-1.168847010E-1,1.677785069E-1
4.007473750E0,1.525417715E-2,-1.348790377E-1,1.556135565E-1
4.019473750E0,-2.757620299E-3,-1.444259882E-1,1.367814541E-1
4.029473750E0,-1.937315450E-3,-1.450194120E-1,1.124341115E-1
4.039473750E0,-8.377579972E-3,-1.469567269E-1,8.508480340E-2
4.051473750E0,-3.269001842E-2,-1.404990107E-1,5.939355493E-2
4.061473750E0,-4.581489414E-2,-1.133940443E-1,5.148721114E-2
4.071473750E0,-5.422737822E-2,-7.655014098E-2,5.370378122E-2
4.081473750E0,-5.064945295E-2,-4.394739121E-2,5.616469681E-2
4.091473750E0,-4.370304570E-2,-3.049090132E-2,4.813618213E-2
4.101473750E0,-2.881538495E-2,-4.331907257E-2,3.183480725E-2
4.113472187E0,4.747295752E-3,-6.782349199E-2,1.085594762E-2
4.123473750E0,3.773401678E-2,-6.017895415E-2,-4.415682983E-3
4.135472187E0,5.136504024E-2,-4.841543362E-2,-6.928957067E-3
4.145472187E0,3.672172874E-2,-4.764748737E-2,-5.235987715E-3
4.155473750E0,1.284562331E-2,-3.176499158E-2,1.570796361E-3
4.167472187E0,-2.490584925E-2,-1.890191622E-2,2.796017379E-2
4.177473750E0,-5.523966998E-2,-9.564404376E-3,5.153957382E-2
4.189472187E0,-8.232717961E-2,-1.427679323E-2,7.490953058E-2
4.199472187E0,-8.857546002E-2,-3.733259439E-2,8.620180935E-2
4.209473750E0,-8.948303014E-2,-6.225589290E-2,7.682939619E-2
4.221473750E0,-9.868091345E-2,-7.129669935E-2,5.722934753E-2
4.233473750E0,-8.623671532E-2,-7.264060527E-2,4.022983834E-2
4.245472187E0,-6.173229590E-2,-5.401793867E-2,1.174606569E-2
4.255473750E0,-4.014257342E-2,-2.359685116E-2,-2.827433404E-3
4.265473750E0,-2.731440216E-2,1.570796303E-4,-6.056292448E-3
4.277473750E0,-4.197516665E-2,5.742133129E-3,8.429939859E-3
4.287473750E0,-6.269222498E-2,7.452555932E-3,3.061307408E-2
4.297473750E0,-9.251990169E-2,1.272345055E-2,4.003785178E-2
4.309473750E0,-1.160992980E-1,5.934119225E-3,3.223622963E-2
4.319473750E0,-1.110727564E-1,5.759586347E-4,1.586504281E-2
4.331472187E0,-6.775368005E-2,7.679448463E-3,-1.314232964E-2
4.341473750E0,-1.970476657E-2,1.317723561E-2,-4.673991725E-2
4.351473750E0,1.123992074E-2,1.139700040E-2,-6.906268001E-2
4.363473750E0,2.377138473E-2,9.477137588E-3,-7.286749780E-2
4.373473750E0,3.071779385E-2,1.595230959E-2,-6.307619810E-2
4.385472187E0,2.572615258E-2,2.258456126E-2,-4.436627030E-2
4.395473750E0,1.347394194E-2,3.059562109E-2,-3.317870945E-2
4.405473750E0,6.544984877E-3,4.347615317E-2,-3.117158078E-2
4.417472187E0,2.419026382E-2,4.398229718E-2,-4.593706504E-2
4.427473750E0,4.934045672E-2,3.588397056E-2,-5.078908056E-2
4.437473750E0,7.791149616E-2,4.056145251E-2,-5.796238407E-2
4.447473750E0,1.111600175E-1,3.768165782E-2,-6.564183533E-2
4.459473750E0,1.445307136E-1,3.476695716E-2,-6.733480096E-2
4.471472187E0,1.625425071E-1,3.143338114E-2,-5.457644537E-2
4.481473750E0,1.690351367E-1,4.413937777E-2,-3.651228920E-2
4.491473750E0,1.573763341E-1,3.953170776E-2,-3.293436393E-2
4.503472187E0,1.291892678E-1,2.940879762E-2,-4.127703607E-2
4.513473750E0,1.320341527E-1,2.069960535E-2,-6.410594285E-2
4.523473750E0,1.441292912E-1,1.893682219E-2,-9.807004780E-2
4.535473750E0,1.501855850E-1,2.897246554E-2,-1.243547052E-1
4.545473750E0,1.328719109E-1,4.577998444E-2,-1.239009202E-1
4.557472187E0,9.887290001E-2,8.667305112E-2,-1.028522551E-1
4.567473750E0,6.209881604E-2,1.238136590E-1,-7.281513512E-2
4.577473750E0,3.672172874E-2,1.285260469E-1,-4.883431271E-2
4.587473750E0,1.579522900E-2,1.233598739E-1,-2.930407785E-2
4.599473750E0,2.562143281E-2,1.170941368E-1,-4.263839498E-2
4.609473750E0,4.391248524E-2,1.384220570E-1,-6.450736523E-2
4.621473750E0,4.804891348E-2,1.773254573E-1,-8.595746756E-2
4.631473750E0,4.075343907E-2,1.850398034E-1,-8.625417203E-2
4.643472187E0,2.319542505E-2,1.870818436E-1,-7.712610066E-2
4.653473750E0,3.769911127E-3,1.763131618E-1,-6.426302344E-2
4.663473750E0,-2.108357660E-2,1.405513585E-1,-6.106907129E-2
4.675473750E0,-2.616248466E-2,8.122762293E-2,-7.641051710E-2
4.685473750E0,7.103490178E-3,4.822344705E-2,-8.798204362E-2
4.695473750E0,6.628760695E-2,4.557054490E-2,-9.367182106E-2
4.707473750E0,1.452812105E-1,6.923720986E-2,-1.234820411E-1
4.717473750E0,1.773952693E-1,9.515535086E-2,-1.404466480E-1
4.729472187E0,1.610764414E-1,1.281595230E-1,-1.428377479E-1
4.739473750E0,1.259604096E-1,1.527861208E-1,-1.297477782E-1
4.749473750E0,9.154251963E-2,1.622807086E-1,-1.080184281E-1
4.761473750E0,6.145304441E-2,1.458746195E-1,-7.745771110E-2
4.771473750E0,5.052728206E-2,1.162040234E-1,-7.267551124E-2
4.781473750E0,3.937462717E-2,7.791149616E-2,-7.864453644E-2
4.793473750E0,2.804744057E-2,4.857251421E-2,-9.485864639E-2
4.803473750E0,3.850196302E-2,3.502875939E-2,-1.113345549E-1
4.815472187E0,5.471607298E-2,5.208062381E-2,-1.314232945E-1
4.825473750E0,5.523966998E-2,8.913396299E-2,-1.355771720E-1
4.835473750E0,3.324852139E-2,1.207069680E-1,-1.352106631E-1
4.847473750E0,-1.888446324E-2,1.327148378E-1,-1.147553995E-1
4.857473750E0,-6.534512341E-2,1.212131158E-1,-1.077217236E-1
4.867473750E0,-1.018399596E-1,6.499606371E-2,-9.110618383E-2
4.877473750E0,-1.206546128E-1,1.314232964E-2,-8.511970937E-2
4.889473750E0,-1.332384348E-1,-3.804817796E-2,-8.178612590E-2
4.901472187E0,-6.344271451E-2,-7.380997390E-2,-6.756169349E-2
4.911473750E0,3.569198400E-2,-7.042403519E-2,-6.016149744E-2
4.923472187E0,5.201081187E-2,-4.173082113E-2,-3.682644665E-2
4.933473750E0,2.944370359E-2,-4.893903062E-2,-3.157300502E-2
4.943473750E0,4.417428374E-2,-6.614797749E-3,-3.007202223E-2
4.953473750E0,5.867796764E-2,1.453859266E-2,-2.097885683E-2
4.965473750E0,2.684316412E-2,2.171189524E-2,-1.064650831E-3
4.975473750E0,-3.563962504E-2,1.808161102E-2,1.019272301E-2
4.987472187E0,-8.731882274E-2,-1.764527895E-2,3.474950418E-2
4.997473750E0,-1.300619394E-1,-4.735078290E-2,6.173229590E-2
5.007473750E0,-1.382998824E-1,-5.407030135E-2,7.428121567E-2
5.019473750E0,-1.247561350E-1,-3.370230645E-2,9.168214351E-2
5.029473750E0,-1.302015632E-1,-1.043706853E-2,1.088736355E-1
5.039473750E0,-1.281595230E-1,2.600540640E-3,1.041437984E-1
5.051473750E0,-1.473407000E-1,1.289798319E-2,9.436995536E-2
5.061473750E0,-1.899092793E-1,-8.412486874E-3,8.820894361E-2
5.073472187E0,-2.079210728E-1,-7.417649496E-3,7.670722157E-2
5.083473750E0,-1.721418202E-1,2.401573025E-2,7.065092772E-2
5.093473750E0,-1.419650763E-1,6.930702180E-2,8.190830052E-2
5.105473750E0,-1.118756011E-1,7.962191850E-2,8.204792440E-2
5.115473750E0,-1.160992980E-1,6.026621908E-2,8.300785720E-2
5.125486250E0,-1.178446338E-1,8.052948862E-2,7.396705449E-2
5.137473750E0,-1.151917279E-1,5.490805954E-2,6.368706375E-2
5.147473750E0,-1.231155246E-1,2.497566119E-2,6.051056460E-2
5.157473750E0,-1.094670519E-1,1.825614460E-2,4.799655452E-2
5.167473750E0,-8.779006451E-2,1.403244678E-2,5.331980810E-2
5.177473750E0,-6.672393531E-2,2.288126573E-2,8.555603772E-2
5.189472187E0,-4.651302472E-2,1.036725566E-2,1.096066758E-1
5.199472187E0,-6.337290257E-2,1.110029407E-2,1.275835633E-1
5.209473750E0,-5.345943570E-2,2.912954427E-2,1.348965019E-1
5.221472187E0,-2.675589733E-2,2.195624262E-2,1.231329814E-1
5.231472187E0,-3.928736225E-2,-1.291543595E-3,1.061683744E-1
5.241472187E0,-4.146902263E-2,-2.535963431E-2,8.215264976E-2
5.251472187E0,-1.699950732E-2,-3.853686899E-2,7.370525599E-2
5.261473750E0,2.809980186E-3,-4.309218004E-2,7.970918715E-2
5.271473750E0,2.488839440E-2,-3.221877664E-2,7.648032904E-2
5.281473750E0,6.599090248E-2,-1.321214251E-2,7.103490084E-2
5.291473750E0,1.136558428E-1,-6.335545331E-3,6.487388909E-2
5.301515937E0,1.581093818E-1,-4.677482415E-3,5.359905958E-2
5.313472187E0,1.853365153E-1,-2.115339041E-2,3.569198400E-2
5.323472187E0,1.914102584E-1,-2.167698927E-2,3.068288788E-2
5.333472187E0,1.677086800E-1,3.769911127E-3,4.132939503E-2
5.343472187E0,1.252273768E-1,2.246238664E-2,6.815510988E-2
5.353472187E0,7.250097394E-2,1.855284907E-2,9.098401666E-2
5.363473750E0,2.528982051E-2,-9.459684603E-3,1.048419252E-1
5.373473750E0,1.815142483E-2,-4.979424179E-2,1.076693609E-1
5.383473750E0,5.455899239E-2,-6.536258012E-2,1.086467430E-1
5.395473750E0,1.060113013E-1,-6.677629799E-2,1.157153323E-1
5.405473750E0,1.343729049E-1,-7.234390080E-2,1.189267337E-1
5.417472187E0,1.444259882E-1,-1.027649865E-1,1.133591309E-1
5.427473750E0,1.486845911E-1,-1.153488085E-1,8.831366152E-2
5.437473750E0,1.673945338E-1,-8.038986474E-2,6.745697558E-2
5.447478437E0,1.831548512E-1,-3.328342736E-2,7.089527696E-2
5.459473750E0,1.428028345E-1,3.298672382E-3,8.426449448E-2
5.469473750E0,1.011767387E-1,5.342452973E-2,1.011767387E-1
5.481473750E0,4.431391135E-2,3.982841223E-2,1.088212803E-1
5.491473750E0,-9.250245057E-3,-1.865756884E-2,1.016305238E-1
5.503472187E0,2.865830623E-2,-3.865904361E-2,8.855800331E-2
5.513473750E0,8.028514683E-2,-7.803367078E-2,1.012989059E-1
5.523473750E0,1.036900133E-1,-1.255589873E-1,1.038121805E-1
5.535473750E0,1.698030829E-1,-1.340936422E-1,8.747590333E-2
5.545473750E0,2.128254473E-1,-1.282642484E-1,7.819075137E-2
5.557472187E0,2.282541543E-1,-1.088387296E-1,5.864306167E-2
5.567473750E0,2.397733331E-1,-8.834856749E-2,3.010693006E-2
5.577475312E0,2.372775078E-1,-5.797983706E-2,1.001818944E-2
5.589472187E0,2.183232307E-1,-2.185152285E-2,-6.806784077E-4
5.599473750E0,1.596976221E-1,-1.249655709E-2,-8.168140426E-3
5.609473750E0,1.056971401E-1,-2.757620253E-2,-8.587019518E-3
5.619473750E0,6.183701381E-2,-2.277654596E-2,-7.330382941E-4
5.631473750E0,2.715732343E-2,9.773843922E-3,1.331686229E-2
5.643472187E0,4.485496320E-3,3.405137360E-2,2.834414691E-2
5.653473750E0,-1.656317525E-2,1.719149388E-2,2.309070528E-2
5.663473750E0,-3.780383244E-2,5.445427261E-3,9.616764262E-3
5.675472187E0,-2.396337129E-2,2.033308521E-2,1.308996929E-3
5.685473750E0,-1.761037298E-2,4.607669264E-2,-1.919862116E-3
5.695473750E0,-4.911356419E-2,5.045747012E-2,-3.141592606E-4
5.707473750E0,-9.985028952E-2,5.064945295E-2,7.801621687E-3
5.717473750E0,-1.028522551E-1,7.255333662E-2,1.151917316E-2
5.727473750E0,-9.770353138E-2,7.002261281E-2,4.607669078E-3
5.739473750E0,-1.092925146E-1,3.270747140E-2,-2.015855350E-2
5.749473750E0,-1.107062325E-1,-3.141592606E-4,-4.586725309E-2
5.761472187E0,-1.038994491E-1,-3.125884756E-2,-6.255260110E-2
5.771473750E0,-9.135053307E-2,-4.462806880E-2,-7.154104859E-2
5.781473750E0,-6.768386811E-2,-3.122393973E-2,-8.318239450E-2
5.791473750E0,-5.731661245E-2,-6.091198884E-3,-8.435176313E-2
5.803472187E0,-8.754571527E-2,-2.904227935E-2,-6.586872786E-2
5.813472187E0,-6.319837272E-2,-1.544616371E-2,-6.764896214E-2
5.823472187E0,-3.652974218E-2,-4.014257342E-3,-6.908012927E-2
5.833472187E0,-6.572909653E-2,-9.477137588E-3,-6.633996218E-2
5.843472187E0,-7.478735596E-2,-2.644173801E-2,-6.508332491E-2
5.853472187E0,-8.676031977E-2,-2.707005665E-2,-6.199409440E-2
5.863473750E0,-6.778858602E-2,-7.888888009E-3,-5.677555874E-2
5.873473750E0,-2.813470736E-2,1.336922217E-2,-5.356415361E-2
5.885472187E0,-4.434881732E-2,-9.773843922E-4,-3.967133537E-2
5.895473750E0,-6.583382189E-2,-1.727875881E-2,-3.323106840E-2
5.905473750E0,-7.546803355E-2,-3.214896470E-2,-1.600466855E-2
5.915473750E0,-6.326818466E-2,-1.017526910E-2,1.165879890E-2
5.927473750E0,-8.384561539E-2,-2.186897583E-2,5.487314984E-2
5.937473750E0,-8.026769012E-2,-3.509857133E-2,6.073745713E-2
5.949473750E0,-6.070255116E-2,-4.591961205E-2,3.947934881E-2
5.959473750E0,-3.902556375E-2,-4.860742018E-2,2.193878777E-2
5.969473750E0,-3.141592606E-4,-6.185446680E-2,-8.866272867E-3
5.981473750E0,3.981095925E-2,-8.991936594E-2,-4.445353523E-2
5.991473750E0,6.932447851E-2,-7.330382615E-2,-4.448844120E-2
6.003472187E0,8.728391677E-2,-4.389503226E-2,-8.307767101E-3
6.013473750E0,8.110544831E-2,-2.429498360E-2,1.666789502E-2
6.023473750E0,7.166321576E-2,-2.902482450E-2,2.448697016E-2
6.035473750E0,6.396631896E-2,-5.742133036E-2,1.603957638E-2
6.045473750E0,8.494517207E-2,-6.005677953E-2,-6.806783844E-3
6.055473750E0,1.175479218E-1,-8.403760195E-2,-2.768092230E-2
6.067473750E0,1.670105606E-1,-1.110727564E-1,-5.321509019E-2
6.077473750E0,2.034006715E-1,-1.227315515E-1,-7.885397226E-2
6.089472187E0,2.467371970E-1,-1.471138000E-1,-9.342747182E-2
6.099473750E0,2.660579979E-1,-1.379682720E-1,-8.103563637E-2
6.109473750E0,2.505594790E-1,-9.726719558E-2,-6.644468755E-2
6.121473750E0,1.921782047E-1,-6.251769513E-2,-5.881759524E-2
6.131473750E0,1.303237379E-1,-6.485643238E-2,-4.968952388E-2
6.143472187E0,7.721336931E-2,-6.356488913E-2,-5.906194076E-2
6.153473750E0,5.998696759E-2,-4.181808978E-2,-8.213519305E-2
6.163473750E0,3.373721614E-2,-2.609267272E-2,-1.004087925E-1
6.175472187E0,1.022762898E-2,-1.438151300E-2,-1.094670519E-1
6.185473750E0,1.146681327E-2,-2.202605456E-2,-1.070934013E-1
6.195473750E0,5.340707488E-3,-3.649483621E-2,-9.138543904E-2
6.207473750E0,8.150687441E-3,-6.335545331E-2,-8.342673630E-2
6.217473750E0,1.104793418E-2,-8.991936594E-2,-7.705628872E-2
6.229472187E0,2.363175713E-2,-8.318239450E-2,-7.733553648E-2
6.239473750E0,5.258677155E-2,-2.012364566E-2,-8.333947510E-2
6.249473750E0,6.969099492E-2,5.286602303E-2,-6.764896214E-2
6.261472187E0,4.173082113E-2,1.048593819E-1,-4.824090004E-2
6.271473750E0,3.647738136E-3,9.047786891E-2,-5.030038953E-2
6.283472187E0,-4.735078290E-2,5.298819765E-2,-5.441936478E-2
6.293473750E0,-6.965608895E-2,1.886700839E-2,-3.028146178E-2
6.303473750E0,-6.382668763E-2,-1.221730490E-4,-9.424777818E-4
6.315472187E0,-2.823942713E-2,-3.230604529E-2,4.206243437E-3
6.325473750E0,6.894050632E-3,-4.483750835E-2,-2.268928074E-4
6.335473750E0,5.326744914E-2,-4.694935679E-2,-7.347836159E-3
6.347472187E0,1.039169058E-1,-7.311183959E-2,-2.213077433E-2
6.357473750E0,9.208357334E-2,-6.426302344E-2,-4.143411666E-2
6.367473750E0,5.119050667E-2,-2.726204321E-2,-5.897467583E-2
6.377473750E0,1.562069636E-2,1.506219152E-2,-7.496189326E-2
6.389473750E0,-1.507964451E-2,5.304055661E-2,-8.292059600E-2
6.401472187E0,-4.715879634E-2,4.689699784E-2,-8.614945412E-2
6.411473750E0,-7.740534842E-2,3.897320107E-2,-8.326965570E-2
6.423472187E0,-1.059240326E-1,2.918190509E-2,-6.958627701E-2
6.433473750E0,-1.047895700E-1,2.691297606E-2,-5.405284837E-2
6.443473750E0,-9.047786891E-2,1.935570128E-2,-3.153809905E-2
6.453473750E0,-8.876744658E-2,2.982767671E-2,1.448623254E-3
6.465473750E0,-1.027824357E-1,4.345869645E-2,3.689625859E-2
6.475473750E0,-1.102175415E-1,5.555383116E-2,5.440191180E-2
6.487472187E0,-1.112472862E-1,6.703809649E-2,6.063273922E-2
6.497473750E0,-1.111774743E-1,6.005677953E-2,5.923647434E-2
6.507473750E0,-1.103920713E-1,4.708898440E-2,5.551892146E-2
6.519473750E0,-9.724974632E-2,2.506292798E-2,4.199262336E-2
6.529473750E0,-9.749408811E-2,-2.809980186E-3,2.747148275E-2
6.539476875E0,-8.595746756E-2,-1.953023486E-2,1.003564335E-2
6.551473750E0,-6.761405617E-2,-4.146902263E-2,2.021091245E-2
6.561473750E0,-5.415756628E-2,-3.541272879E-2,2.932153083E-2
6.573472187E0,-6.372196972E-2,-6.981316983E-5,4.139921069E-2
6.583473750E0,-8.524188399E-2,3.169517964E-2,4.928809777E-2
6.593473750E0,-1.097812131E-1,5.551892146E-2,3.721041977E-2
6.605473750E0,-1.456477195E-1,5.047492310E-2,1.987930015E-2
6.615473750E0,-1.531875432E-1,4.714134336E-2,5.550147034E-3
6.625486250E0,-1.550375968E-1,4.284783453E-2,2.059488557E-2
6.637473750E0,-1.377239376E-1,4.263839498E-2,5.679301545E-2
6.647473750E0,-1.325228512E-1,4.646066576E-2,9.344492853E-2
6.659472187E0,-1.233773232E-1,3.867649660E-2,1.145634130E-1
6.669473750E0,-1.220159680E-1,2.438225038E-2,1.172163114E-1
6.679473750E0,-1.107062325E-1,2.387610450E-2,1.126610041E-1
6.691473750E0,-1.001993492E-1,5.166174378E-3,9.000662714E-2
6.701473750E0,-1.055575162E-1,7.155850180E-4,7.613126189E-2
6.711473750E0,-1.032536775E-1,8.831365965E-3,7.693411410E-2
6.723473750E0,-9.908234328E-2,2.354449220E-2,8.206538111E-2
6.733473750E0,-8.335692436E-2,3.024655581E-2,8.477064222E-2
6.745472187E0,-7.264060527E-2,3.068288788E-2,8.960520476E-2
6.755473750E0,-4.462806880E-2,3.153809905E-2,8.051203936E-2
6.765473750E0,-2.467895485E-2,1.401499379E-2,6.307619810E-2
6.777473750E0,-1.474803220E-2,1.103048120E-2,3.970624134E-2
6.787473750E0,-1.656317525E-2,1.089085452E-2,3.138101846E-2
6.797473750E0,-2.703515068E-2,2.881538495E-2,2.687807009E-2
6.809473750E0,-4.530874640E-2,4.085815698E-2,4.351105914E-2
6.819473750E0,-4.134684801E-2,4.310963303E-2,5.630432069E-2
6.831472187E0,-4.009021446E-2,1.609193534E-2,6.267477572E-2
6.841473750E0,-2.431243658E-2,-5.061454722E-4,4.693190381E-2
6.851473750E0,7.853981806E-4,-2.251474652E-3,2.935643867E-2
6.863473750E0,4.096287861E-2,-4.834562074E-3,2.094395086E-2
6.873473750E0,7.541567832E-2,2.607521974E-2,3.701843321E-2
6.883473750E0,8.665559441E-2,7.466518879E-2,6.445501000E-2
6.895473750E0,4.125958309E-2,8.115781099E-2,9.693558514E-2
6.905473750E0,4.485496320E-3,5.173156038E-2,1.084198505E-1
6.917472187E0,-1.703441329E-2,8.150687441E-3,1.307949722E-1
6.927473750E0,8.203047328E-3,1.153662615E-2,1.481086463E-1
6.937473750E0,5.139994621E-2,8.203047328E-3,1.563291401E-1
6.949473750E0,3.759439290E-2,-3.174753860E-2,1.719498336E-1
6.959473750E0,5.934119225E-3,-6.771877408E-2,1.703790426E-1
6.969473750E0,-1.183333248E-2,-9.042550623E-2,1.584060788E-1
6.981473750E0,-4.562290758E-2,-9.628981352E-2,1.575508714E-1
6.991473750E0,-5.501277745E-2,-9.107127786E-2,1.581617296E-1
7.003472187E0,-2.384119667E-2,-6.756169349E-2,1.518611014E-1
7.013473750E0,1.218239777E-2,-5.496041849E-2,1.278453618E-1
7.023473750E0,2.515019476E-2,-5.407030135E-2,1.068316028E-1
7.035473750E0,5.906194076E-2,-2.551671304E-2,8.185594529E-2
7.045473750E0,1.106538773E-1,-3.316125658E-4,6.974335760E-2
7.055473750E0,1.400626749E-1,2.932153177E-3,5.822418258E-2
7.067473750E0,1.492082030E-1,-5.427973811E-3,4.124213010E-2
7.077473750E0,1.406560838E-1,-4.782202188E-3,4.249876738E-2
7.087473750E0,1.130973324E-1,-2.923426405E-2,5.501277745E-2
7.099473750E0,8.237954229E-2,-5.427974090E-2,5.866051465E-2
7.109473750E0,6.815510988E-2,-7.136651129E-2,6.995279342E-2
7.121473750E0,4.263839498E-2,-1.018399596E-1,7.295475900E-2
7.131473750E0,2.223549411E-2,-1.056447774E-1,6.834709644E-2
7.141473750E0,1.762782596E-2,-8.688248694E-2,7.133160532E-2
7.153473750E0,2.637192421E-2,-5.658357590E-2,6.944665313E-2
7.163473750E0,4.216715321E-2,-2.494075522E-2,5.689773336E-2
7.175472187E0,3.930481523E-2,-2.211332135E-2,5.719443783E-2
7.185473750E0,3.110176697E-2,-2.303834632E-2,6.260495633E-2
7.195473750E0,1.996656694E-2,-1.085594762E-2,7.077310234E-2
7.207473750E0,-3.248057887E-2,-3.080506064E-2,7.990117371E-2
7.217473750E0,-5.689773336E-2,-3.928736225E-2,8.381070942E-2
7.227473750E0,-6.277949363E-2,-3.665191308E-2,8.717919886E-2
7.239473750E0,-6.077236310E-2,-5.183627829E-3,7.726572454E-2
7.249473750E0,-5.892231688E-2,1.431170036E-3,5.480333790E-2
7.259473750E0,-4.214970022E-2,1.247910410E-2,2.483603545E-2
7.271473750E0,-7.429866493E-2,2.061233856E-2,9.459684603E-3
7.283472187E0,-1.172861233E-1,3.768165782E-2,-1.692969352E-3
7.293473750E0,-1.254717261E-1,3.235840425E-2,-1.146681327E-2
7.303473750E0,-1.141270772E-1,6.152285635E-2,-1.494001877E-2
7.315472187E0,-9.637708217E-2,7.443828881E-2,-5.969026126E-3
7.325473750E0,-8.632398397E-2,6.195918843E-2,-2.474876866E-2
7.335473750E0,-8.518952131E-2,1.713913307E-2,-5.352924764E-2
7.347472187E0,-5.818927661E-2,-3.284709528E-2,-8.372344077E-2
7.357473750E0,-2.637192421E-2,-3.110176697E-2,-1.081406027E-1
7.367473750E0,1.745329246E-5,-1.846558414E-2,-1.083151326E-1
7.377473750E0,-5.393067375E-3,-2.960078418E-2,-1.057494953E-1
7.389473750E0,-4.625122529E-3,-2.701769583E-2,-1.087340117E-1
7.401472187E0,-8.674286306E-3,-2.731440216E-2,-9.529497474E-2
7.411473750E0,-9.948376566E-3,-1.244419720E-2,-9.019861370E-2
7.421473750E0,-1.637118869E-2,-8.709193207E-3,-8.463101834E-2
7.433472187E0,-3.593632951E-2,-2.005383372E-2,-9.096655995E-2
7.443473750E0,-5.234242231E-2,-2.658136375E-2,-8.047713339E-2
7.453473750E0,-5.688028038E-2,-1.799434423E-2,-7.171557844E-2
7.465473750E0,-1.096066739E-2,-1.666789502E-2,-7.358308136E-2
7.475473750E0,-1.141445339E-2,-4.721115530E-2,-7.281513512E-2
7.487472187E0,-3.333578818E-3,-6.337290257E-2,-7.405432314E-2
7.497473750E0,1.375319436E-2,-7.447320223E-2,-7.499679923E-2
7.507473750E0,1.089085452E-2,-7.096508890E-2,-6.698573381E-2
7.519472187E0,-1.771509275E-2,-6.981316954E-2,-5.892231688E-2
7.529473750E0,-3.103195317E-2,-6.204645336E-2,-4.740314186E-2
7.539473750E0,-2.426007576E-2,-3.907792270E-2,-3.876376152E-2
7.551473750E0,1.326450263E-3,-1.047197584E-4,-4.040437192E-2
7.561473750E0,6.632251316E-4,1.431170036E-3,-4.551818594E-2
7.573472187E0,2.752384171E-2,3.839724232E-3,-7.501424849E-2
7.583473750E0,4.056145251E-2,8.045967668E-3,-8.511970937E-2
7.593473750E0,5.880014226E-2,8.726646047E-5,-8.018042892E-2
7.605473750E0,6.096434966E-2,1.656317525E-2,-5.969025940E-2
7.615473750E0,5.401793867E-2,8.831365965E-3,-2.689552307E-2
7.625487812E0,3.944443911E-2,-8.185594343E-3,-8.220500313E-3
7.637473750E0,7.503170520E-2,-9.075712413E-3,-2.043780498E-2
7.647473750E0,1.151568219E-1,-1.881464943E-2,-5.991715193E-2
7.659473750E0,1.422443390E-1,-7.253587991E-2,-1.030093357E-1
7.669473750E0,1.355422735E-1,-9.190903604E-2,-1.310044080E-1
7.679473750E0,1.465727538E-1,-5.850343779E-2,-1.537635028E-1
7.691473750E0,1.478642970E-1,1.404990070E-2,-1.630137563E-1
7.701473750E0,1.235518605E-1,5.597271025E-2,-1.601688713E-1
7.711473750E0,9.428268671E-2,3.434807807E-2,-1.539205909E-1
7.723473750E0,5.487314984E-2,-1.734857261E-2,-1.502553970E-1
7.733473750E0,5.218534265E-3,-5.808455870E-2,-1.667487621E-1
7.745472187E0,-3.553490341E-2,-4.368559271E-2,-1.728050560E-1
7.755473750E0,-3.989822790E-2,-2.302089334E-2,-1.719498336E-1
7.765473750E0,-1.825614460E-2,-2.364921197E-2,-1.695412844E-1
7.777473750E0,-5.951572675E-3,-3.817034885E-2,-1.723338068E-1
7.787473750E0,1.759291813E-2,-4.710643739E-2,-1.880068630E-1
7.797473750E0,6.696828455E-2,-5.508258939E-2,-2.007477731E-1
7.809473750E0,1.207942367E-1,-6.131341681E-2,-2.017775178E-1
7.819473750E0,1.720021963E-1,-2.836159989E-2,-1.817062348E-1
7.831472187E0,1.748470813E-1,1.221730467E-2,-1.396787018E-1
7.841473750E0,1.332907975E-1,4.235913977E-2,-9.044296294E-2
7.851473750E0,8.990190923E-2,7.641051710E-2,-5.567600206E-2
7.863473750E0,4.420918971E-2,1.014385372E-1,-4.347615317E-2
7.873473750E0,2.563888580E-2,9.379399568E-2,-3.593632951E-2
7.883473750E0,1.008800324E-2,8.452629298E-2,-5.033529550E-2
7.895473750E0,-2.045525797E-2,3.295181692E-2,-5.773549154E-2
7.905473750E0,-4.134684801E-2,1.000073645E-2,-5.272639543E-2
7.917472187E0,-1.153662615E-2,1.534144394E-2,-4.860742018E-2
7.927473750E0,1.853539608E-2,2.305579931E-2,-4.153883457E-2
7.937473750E0,2.811725438E-2,9.477137588E-3,-5.302310362E-2
7.949473750E0,3.415609151E-2,-1.059414819E-2,-7.967428118E-2
7.959473750E0,2.385865152E-2,1.263618376E-2,-9.527752548E-2
7.969473750E0,8.499753661E-3,5.511749908E-2,-9.363691509E-2
7.981473750E0,-1.117010694E-2,8.068656921E-2,-9.037315100E-2
7.991473750E0,-3.209660575E-2,8.335692436E-2,-8.244935423E-2
8.003472187E0,-5.735151842E-2,7.876671106E-2,-7.780677825E-2
8.013473750E0,-6.977826357E-2,7.745771110E-2,-6.747443229E-2
8.023473750E0,-7.471754402E-2,4.649557173E-2,-4.721115530E-2
8.035473750E0,-5.736897141E-2,5.396557972E-2,-3.478441015E-2
8.045473750E0,-4.316199198E-2,7.004006207E-2,-1.136209350E-2
8.055473750E0,-4.735078290E-2,6.571164727E-2,8.552113548E-3
8.067473750E0,-6.644468755E-2,8.520697057E-2,2.602285892E-2
8.077473750E0,-2.764601447E-2,1.074075624E-1,3.298672289E-2
8.089472187E0,-4.644321278E-2,8.042477071E-2,3.705333918E-2
8.099473750E0,-8.689994365E-2,6.230825558E-2,3.618067503E-2
8.109473750E0,-6.211626902E-2,5.230751634E-2,3.347541392E-2
8.121473750E0,-2.741912194E-2,5.462880433E-2,3.368485346E-2
8.131476875E0,-4.185299575E-2,3.790855035E-2,3.794345632E-2
8.143472187E0,-4.139921069E-2,1.221730490E-4,2.858849242E-2
8.153473750E0,-4.593706504E-2,-3.682644805E-3,2.555162087E-2
8.163473750E0,-2.474876866E-2,1.127482671E-2,3.422590718E-2
8.175472187E0,-3.895574808E-2,7.470009383E-3,5.496041849E-2
8.185473750E0,-7.688175142E-2,-7.801621687E-3,6.154030934E-2
8.195473750E0,-1.041612476E-1,-1.720894687E-2,8.693484962E-2
8.207473750E0,-9.436995536E-2,-3.375466913E-2,1.334129721E-1
8.217473750E0,-1.044405028E-1,-2.354449220E-2,1.680228412E-1
8.227473750E0,-7.429866493E-2,-1.329940930E-2,1.876403540E-1
8.239473750E0,-6.871361285E-2,-2.471386269E-2,2.072403878E-1
8.249473750E0,-7.651523501E-2,-2.865830623E-2,2.083050460E-1
8.261472187E0,-8.450884372E-2,-3.141592606E-4,1.917069703E-1
8.271473750E0,-7.829546928E-2,2.874557301E-2,1.890191585E-1
8.281473750E0,-1.048244759E-1,3.237585723E-2,1.967684180E-1
8.293473750E0,-1.120675877E-1,5.930628628E-2,2.180788964E-1
8.303473750E0,-1.042834222E-1,5.510004610E-2,2.598271668E-1
8.313473750E0,-9.018116444E-2,5.443681777E-2,2.717826664E-1
8.325473750E0,-6.904522330E-2,4.049163684E-2,2.223200351E-1
8.335473750E0,-3.808308393E-2,3.968878835E-2,1.917767823E-1
8.347472187E0,-6.632251316E-4,5.637413636E-2,1.737475246E-1
8.357473750E0,-1.544616371E-2,5.904448777E-2,1.649859697E-1
8.367473750E0,-1.966986060E-2,6.611306965E-2,1.543569118E-1
8.377473750E0,-2.617993741E-4,7.476990670E-2,1.464156657E-1
8.389473750E0,9.215338156E-3,9.166469425E-2,1.541474760E-1
8.399473750E0,8.918632753E-3,1.082453206E-1,1.686686128E-1
8.411473750E0,6.038838997E-3,8.007570356E-2,1.770461947E-1
8.421473750E0,-9.704031050E-3,3.471459821E-2,1.719847471E-1
8.433472187E0,-2.029817924E-2,-8.203047328E-4,1.613382399E-1
8.443473750E0,4.628613219E-2,5.811946467E-3,1.365371048E-1
8.453473750E0,1.223824844E-1,-5.602506921E-3,1.152091846E-1
8.465473750E0,1.632406414E-1,-3.473205119E-2,9.145525098E-2
8.475473750E0,1.798910797E-1,-2.293362655E-2,7.478735596E-2
8.487472187E0,1.847431064E-1,3.012438305E-2,8.239699155E-2
8.497473750E0,1.621759981E-1,7.148868591E-2,1.034980267E-1
8.507473750E0,1.181064323E-1,9.594074637E-2,1.272868663E-1
8.517473750E0,9.065239877E-2,9.798278660E-2,1.400452256E-1
8.529473750E0,9.236282110E-2,5.857324973E-2,1.311963946E-1
8.539473750E0,1.222952232E-1,2.354449220E-2,1.319294423E-1
8.551473750E0,1.902059764E-1,3.703588620E-2,1.333606094E-1
8.561473750E0,2.054776102E-1,2.244493365E-2,1.406386346E-1
8.573472187E0,1.562069654E-1,-3.385938704E-3,1.548456103E-1
8.583473750E0,1.162912846E-1,-3.012438305E-2,1.707630157E-1
8.593473750E0,8.525933325E-2,-4.628613219E-2,1.867502332E-1
8.605472187E0,5.085889250E-2,-6.531021744E-2,1.750216186E-1
8.615473750E0,8.634144068E-2,-4.162610322E-2,1.570970863E-1
8.625486250E0,1.008451208E-1,-5.311036855E-2,1.425410360E-1
8.637473750E0,7.206464559E-2,-8.779006451E-2,9.410814941E-2
8.647473750E0,5.782275647E-2,-8.457865566E-2,5.880014226E-2
8.659472187E0,8.190830052E-2,-6.035348400E-2,5.169665068E-2
8.669473750E0,1.037598252E-1,-4.661774263E-2,4.756022245E-2
8.679473750E0,1.118581519E-1,-4.223696887E-2,4.010766745E-2
8.691472187E0,1.039692611E-1,-6.963863969E-2,3.406882659E-2
8.701473750E0,8.595746756E-2,-1.053131670E-1,4.014257342E-2
8.711473750E0,8.422958851E-2,-1.121025011E-1,4.049163684E-2
8.723473750E0,7.122688740E-2,-1.256986111E-1,3.981095925E-2
8.733473750E0,2.754129469E-2,-1.387362182E-1,3.708824515E-2
8.745472187E0,-3.019419499E-3,-1.410924196E-1,3.246312216E-2
8.755473750E0,-1.349139493E-2,-1.411447823E-1,3.499384969E-2
8.765473750E0,-1.858775690E-2,-1.078788042E-1,3.474950418E-2
8.777473750E0,-1.818633080E-2,-7.255333662E-2,3.965387866E-2
8.787473750E0,-3.562216833E-2,-7.545058429E-2,4.248131439E-2
8.797473750E0,-7.436847687E-2,-8.168140799E-2,4.756022245E-2
8.809473750E0,-9.302604944E-2,-3.661700711E-2,6.000442058E-2
8.819473750E0,-9.602801502E-2,-3.857177682E-3,7.005751878E-2
8.831472187E0,-1.389282048E-1,4.520402756E-3,7.895869762E-2
8.841473750E0,-1.587551534E-1,1.691224054E-2,7.751007378E-2
8.851473750E0,-1.708328277E-1,3.070034087E-2,6.850416958E-2
8.863473750E0,-1.822821796E-1,3.871140257E-2,6.852162629E-2
8.873473750E0,-1.706408411E-1,4.967207089E-2,6.058037654E-2
8.883473750E0,-1.661553383E-1,4.742059484E-2,5.321509019E-2
8.895473750E0,-1.590344012E-1,4.513421282E-2,3.937462717E-2
8.905473750E0,-1.541823894E-1,3.323106840E-2,3.063052893E-2
8.917472187E0,-1.474628747E-1,1.562069636E-2,1.602212340E-2
8.927473750E0,-1.069363207E-1,2.666863054E-2,-6.038838997E-3
8.937473750E0,-8.002334833E-2,3.647737950E-2,-9.407324716E-3
8.947473750E0,-7.677703351E-2,2.806489356E-2,-8.761553094E-3
8.959473750E0,-8.946557343E-2,-4.799655639E-3,-3.769911127E-3
8.969473750E0,-8.957029879E-2,1.169370580E-2,-1.675516134E-3
8.981473750E0,-7.293730974E-2,2.391101047E-2,7.958701812E-3
8.991473750E0,-7.443828881E-2,1.626646891E-2,1.850049011E-3
9.003472187E0,-6.925466657E-2,-7.155850180E-4,-1.745329209E-4
9.013473750E0,-8.035495877E-2,6.265731994E-3,-1.361356815E-3
9.023473750E0,-7.356562465E-2,5.445427261E-3,-9.669124149E-3
9.035473750E0,-7.464773208E-2,8.098327555E-3,-5.445427261E-3
9.045473750E0,-7.536331564E-2,2.089159191E-2,-7.557275705E-3
9.055473750E0,-6.169738993E-2,2.488839440E-2,-1.579522900E-2
9.067473750E0,-7.422885299E-2,7.853981806E-4,-1.480039209E-2
9.077473750E0,-7.157595456E-2,-1.204277156E-3,-2.914699912E-2
9.087473750E0,-7.421139628E-2,-1.186823938E-3,-4.082325101E-2
9.099473750E0,-9.311331809E-2,-7.941247895E-3,-5.176646635E-2
9.109473750E0,-9.051277488E-2,1.904154196E-2,-5.487314984E-2
9.121473750E0,-7.693411410E-2,4.014257342E-2,-5.473352596E-2
9.131473750E0,-7.431612164E-2,1.509709843E-2,-4.150392860E-2
9.141473750E0,-6.448991597E-2,8.499753661E-3,-4.403465614E-2
9.153473750E0,-6.009168550E-2,-1.752310619E-2,-5.242969096E-2
9.163473750E0,-6.963863503E-3,-2.593559213E-2,-7.016223669E-2
9.175472187E0,6.532767415E-2,-4.712389037E-2,-1.079660654E-1
9.185473750E0,1.070934013E-1,-3.371975943E-2,-1.511629671E-1
9.197472187E0,1.258207858E-1,-1.822123677E-2,-1.818982214E-1
9.207473750E0,1.216494516E-1,4.171337001E-3,-1.908692122E-1
9.217473750E0,1.228362694E-1,1.637118869E-2,-1.839053482E-1
9.227473750E0,1.425061375E-1,3.066543490E-2,-1.656841040E-1
9.239473750E0,1.220334172E-1,-6.422811653E-3,-1.501157731E-1
9.251472187E0,7.311183959E-2,-4.707153141E-2,-1.604830176E-1
9.261472187E0,1.211258471E-1,-5.251695588E-2,-1.897521913E-1
9.271473750E0,1.909215599E-1,-5.625196174E-2,-2.072753012E-1
9.281473750E0,2.013760954E-1,-8.791223168E-2,-2.345024347E-1
9.291473750E0,2.185152173E-1,-9.985028952E-2,-2.786767185E-1
9.303473750E0,2.636843324E-1,-6.106907129E-2,-3.013311028E-1
9.313473750E0,3.004758954E-1,-1.987930015E-2,-2.882585824E-1
9.325473750E0,2.807885706E-1,3.630284965E-2,-2.753082216E-1
9.335473750E0,2.142217159E-1,3.293436393E-2,-2.687458098E-1
9.347472187E0,1.566607505E-1,2.298598550E-2,-2.640857697E-1
9.357473750E0,1.103048101E-1,-3.892084118E-3,-2.657089233E-1
9.367473750E0,5.989969894E-2,-7.941247895E-3,-2.687283456E-1
9.377473750E0,3.639011458E-2,3.001966281E-3,-2.617121339E-1
9.389473750E0,6.562437862E-3,-1.034980267E-2,-2.742784917E-1
9.399473750E0,-2.839650773E-2,-4.518657550E-2,-2.863212526E-1
9.411473750E0,-1.692969352E-2,-5.480333790E-2,-2.997079492E-1
9.421473750E0,1.183333248E-2,-7.702138275E-2,-3.027622700E-1
9.433472187E0,6.014404446E-2,-1.171290427E-1,-3.060434759E-1
9.443473750E0,7.424630970E-2,-1.437104046E-1,-3.014183640E-1
9.453473750E0,8.442157507E-2,-1.376366615E-1,-2.866179645E-1
9.465473750E0,1.245292425E-1,-8.182103187E-2,-2.659532726E-1
9.475473750E0,1.458222568E-1,-1.352630183E-2,-2.414314002E-1
9.485473750E0,1.141445339E-1,3.155555204E-2,-2.156354338E-1
9.497473750E0,3.323106840E-2,5.352924764E-2,-2.001718134E-1
9.507473750E0,-2.862340072E-3,7.712610066E-2,-1.935395598E-1
9.519472187E0,-1.836086437E-2,7.829546928E-2,-1.666789502E-1
9.529473750E0,-3.019419685E-2,6.827727705E-2,-1.505870074E-1
9.539473750E0,-4.803146049E-2,5.050982907E-2,-1.551946700E-1
9.551473750E0,-3.789109737E-2,3.096214123E-2,-1.702394187E-1
9.561473750E0,-1.310742274E-2,3.546509147E-2,-1.798910797E-1
9.571473750E0,1.989675453E-3,5.209807679E-2,-1.863837093E-1
9.583473750E0,-2.356194425E-3,7.218682021E-2,-1.954070628E-1
9.593473750E0,-2.207841538E-2,8.396779001E-2,-2.023185641E-1
9.605472187E0,-5.663593486E-2,1.098859310E-1,-2.086541057E-1
9.615473750E0,-7.649777830E-2,1.239881888E-1,-2.157576084E-1
9.625486250E0,-8.072147518E-2,1.421396136E-1,-2.155307084E-1
9.637473750E0,-8.941321820E-2,1.353328228E-1,-2.105390728E-1
9.647475312E0,-8.077383786E-2,1.204102635E-1,-2.087064683E-1
9.659472187E0,-6.897541136E-2,9.374163300E-2,-1.919338554E-1
9.669473750E0,-6.209881604E-2,7.349581271E-2,-1.689129621E-1
9.679473750E0,-4.530874640E-2,6.092944369E-2,-1.426283121E-1
9.691473750E0,-5.688028038E-2,7.831292599E-2,-1.010720134E-1
9.701473750E0,-6.435029209E-2,9.768607467E-2,-7.096508890E-2
9.711473750E0,-4.490732029E-2,1.308298856E-1,-4.935790971E-2
9.723473750E0,-4.864232615E-2,1.267981678E-1,-3.097959422E-2
9.733473750E0,-7.108726352E-2,1.200088412E-1,-3.258529678E-2
9.745472187E0,-1.072679386E-1,1.098161191E-1,-2.340486459E-2
9.755473750E0,-1.230980754E-1,9.850638360E-2,-9.267698042E-3
9.765473750E0,-1.296779662E-1,8.847074211E-2,5.253441166E-3
9.777473750E0,-1.311440468E-1,7.264060527E-2,2.427753061E-2
9.787473750E0,-1.197121367E-1,6.099925563E-2,3.295181692E-2
9.797473750E0,-1.074948311E-1,4.757767543E-2,4.906120524E-2
9.807473750E0,-1.132020578E-1,3.520328924E-2,6.653194875E-2
9.819476875E0,-1.549677849E-1,1.347394194E-2,8.239699155E-2
9.831472187E0,-1.491034776E-1,3.241076320E-2,9.405579418E-2
9.841473750E0,-1.254193634E-1,4.111995548E-2,1.057494953E-1
9.851473750E0,-1.333256960E-1,1.506219152E-2,1.162912846E-1
9.863472187E0,-1.159422249E-1,5.864306353E-3,1.088387296E-1
9.873473750E0,-1.120152324E-1,-7.574729156E-3,1.125039235E-1
9.883473750E0,-1.008102149E-1,-2.808234841E-2,1.222254038E-1
9.895473750E0,-8.782497048E-2,-2.516764775E-2,1.221730486E-1
9.905473750E0,-8.689994365E-2,-2.658136375E-2,1.321039647E-1
9.917472187E0,-9.616763890E-2,-6.928957067E-3,1.514247656E-1
9.927473750E0,-7.265805453E-2,1.509709843E-2,1.497318000E-1
9.937473750E0,-5.157447979E-2,3.293436393E-2,1.441641897E-1
9.949473750E0,-2.670353837E-2,5.162683874E-2,1.364498436E-1
9.959473750E0,-1.288053021E-2,5.715953186E-2,1.290670931E-1
9.969473750E0,-1.832595654E-2,4.167846218E-2,1.283864230E-1
9.981473750E0,-2.387610450E-2,4.555309191E-3,1.400975734E-1
9.991473750E0,-2.597049996E-2,-1.600466855E-2,1.587900519E-1
1.000347219E1,-1.998401992E-2,-2.001892589E-2,1.907994002E-1
1.001347375E1,-1.214749180E-2,-5.759586580E-3,2.139250040E-1
1.002347375E1,9.407324716E-3,1.481784508E-2,2.210459560E-1
1.003547375E1,2.612757869E-2,7.120943163E-3,2.076767236E-1
1.004547375E1,5.201081187E-2,-4.834562074E-3,1.894554943E-1
1.005547375E1,8.307766914E-2,-1.213003788E-2,1.729446799E-1
1.006747375E1,1.178446338E-1,-2.181661502E-2,1.542172879E-1
1.007747375E1,1.519658118E-1,-3.497639671E-2,1.357517093E-1
1.008947219E1,1.902583390E-1,-3.998549283E-2,1.341111064E-1
1.009947375E1,1.980075985E-1,-1.134464052E-2,1.468520015E-1
1.011147219E1,1.535540670E-1,4.462806880E-2,1.774127185E-1
1.012147375E1,9.309586138E-2,8.079128712E-2,2.061582953E-1
1.013147375E1,3.644247353E-2,7.571238279E-2,2.160717547E-1
1.014147375E1,6.719517522E-3,3.825761750E-2,2.088111937E-1
1.015347375E1,1.258382387E-2,5.811946467E-3,2.008873969E-1
1.016347375E1,3.113667294E-2,8.185594343E-3,1.971174777E-1
1.017547219E1,5.337216705E-2,1.553343050E-2,1.888795346E-1
1.018547375E1,6.646213681E-2,2.844886621E-3,1.789136976E-1
1.019547375E1,6.391395628E-2,-2.026327327E-2,1.707455665E-1
1.020747531E1,6.157521531E-2,-5.536184460E-2,1.540951133E-1
1.021947219E1,5.136504024E-2,-7.086037099E-2,1.253495514E-1
1.022947219E1,3.984586522E-2,-9.744173288E-2,1.006007791E-1
1.023947375E1,3.797836602E-2,-1.204277202E-1,7.757988572E-2
1.024947375E1,6.897541136E-2,-1.121025011E-1,6.782349199E-2
1.026147219E1,1.232027933E-1,-6.066764519E-2,4.989896342E-2
1.027147375E1,1.571668983E-1,-2.563888580E-2,3.279473633E-2
1.028147375E1,1.735206395E-1,-1.394518092E-2,2.328269184E-2
1.029151594E1,1.789660603E-1,-2.307325229E-2,2.069960535E-2
1.030347375E1,1.678134054E-1,-5.050982907E-2,1.802925020E-2
1.031347375E1,1.413018554E-1,-7.215191424E-2,2.033308521E-2
1.032547375E1,8.321730047E-2,-1.017003357E-1,3.399901465E-2
1.033547375E1,2.445206232E-2,-1.092401594E-1,5.187118426E-2
1.034747531E1,-2.762856148E-2,-9.269443899E-2,7.030186057E-2
1.035947219E1,-5.675810575E-2,-6.696828455E-2,7.745771110E-2
1.036947219E1,-6.143558770E-2,-4.740314186E-2,6.667158008E-2
1.037947375E1,-6.290166825E-2,-4.241150245E-2,4.164355621E-2
1.038947375E1,-6.770132482E-2,-4.054399952E-2,1.647590846E-2
1.039947375E1,-3.906046972E-2,-2.701769583E-2,-9.738937020E-3
1.040947375E1,-2.040289901E-2,-1.490511186E-2,-3.815289587E-2
1.042147375E1,-3.214896470E-2,-3.019419499E-3,-6.077236310E-2
1.043347219E1,-5.527457595E-2,1.703441329E-2,-4.883431271E-2
1.044347375E1,-6.602580845E-2,3.124139272E-2,-4.440117627E-2
1.045347375E1,-7.660250366E-2,2.963569015E-2,-3.785619140E-2
1.046547375E1,-8.108799905E-2,3.321361542E-2,-3.909537569E-2
1.047547375E1,-8.836601675E-2,3.933972120E-2,-5.194099993E-2
1.048747375E1,-1.156804189E-1,3.707079217E-2,-5.510004610E-2
1.049747375E1,-1.312487572E-1,2.878047898E-2,-5.429719388E-2
1.050747375E1,-1.441467404E-1,2.818706818E-2,-5.469861999E-2
1.051947219E1,-1.596103609E-1,2.089159191E-2,-4.379031062E-2
1.052947375E1,-1.643401980E-1,1.809906401E-2,-4.267330095E-2
1.053947375E1,-1.476373971E-1,1.699950732E-2,-4.597197101E-2
1.055147375E1,-1.399579495E-1,-5.532693584E-3,-5.792747810E-2
1.056147375E1,-1.263269335E-1,-3.279473633E-2,-8.293804526E-2
1.057147375E1,-9.489355236E-2,-5.949827284E-2,-1.137780100E-1
1.058347375E1,-3.584906086E-2,-6.431538612E-2,-1.482831687E-1
1.059347375E1,2.631956525E-2,-2.544690110E-2,-1.561546028E-1
1.060547219E1,4.553563893E-2,1.223475765E-2,-1.428377479E-1
1.061547375E1,1.010545623E-2,2.333505265E-2,-1.219286993E-1
1.062548625E1,-3.530801088E-2,2.059488557E-2,-9.663888067E-2
1.063747375E1,-7.557275891E-2,2.928662486E-2,-6.789331138E-2
1.064747375E1,-9.784315526E-2,2.523746155E-2,-5.047492310E-2
1.065747375E1,-1.106364205E-1,8.953538723E-3,-4.052654654E-2
1.066747375E1,-1.179493517E-1,-1.469567232E-2,-4.391248524E-2
1.067747375E1,-1.060287505E-1,-6.243042648E-2,-5.955063552E-2
1.068947219E1,-1.027475297E-1,-1.064825356E-1,-6.761405617E-2
1.069947219E1,-8.984954655E-2,-1.022588387E-1,-6.387905031E-2
1.070947219E1,-6.606071442E-2,-7.909832150E-2,-5.906194076E-2
1.071947219E1,-5.412266031E-2,-6.501351297E-2,-5.654866621E-2
1.072947219E1,-6.942919642E-2,-6.352998316E-2,-6.106907129E-2
1.073947375E1,-7.915068418E-2,-5.433209985E-2,-6.721262634E-2
1.074947375E1,-6.902777404E-2,-3.239331022E-2,-6.623524427E-2
1.076147219E1,-4.553563893E-2,5.480333697E-3,-6.489133835E-2
1.077147375E1,-2.736676298E-2,2.988003753E-2,-6.771877408E-2
1.078147375E1,-1.352630183E-2,3.125884756E-2,-6.778858602E-2
1.079347375E1,2.129301662E-3,1.902408898E-2,-6.721262634E-2
1.080347375E1,4.293509759E-3,3.071779385E-3,-6.325073540E-2
1.081347375E1,1.361356815E-3,2.652900526E-3,-4.490732029E-2
1.082347375E1,-1.226966456E-2,1.368338149E-2,-1.612684131E-2
1.083547375E1,-2.968805097E-2,1.583013684E-2,2.546435408E-2
1.084548000E1,-3.178244457E-2,1.987930015E-2,5.544910952E-2
1.085747375E1,-3.351031989E-2,1.103048120E-2,7.408922911E-2
1.086747375E1,-3.424336016E-2,-2.007128671E-2,5.625196174E-2
1.087747375E1,-9.145525284E-3,-6.817255914E-2,1.932079531E-2
1.088947375E1,6.665412337E-2,-9.911724925E-2,-3.026400879E-2
1.089947375E1,1.392249167E-1,-1.126435474E-1,-6.429792941E-2
1.091147375E1,1.822298318E-1,-1.188394651E-1,-9.231046587E-2
1.092147375E1,1.743409336E-1,-1.081056967E-1,-9.731955826E-2
1.093347219E1,1.440420300E-1,-7.754497975E-2,-9.646435082E-2
1.094347375E1,1.051735431E-1,-4.956734926E-2,-9.265953302E-2
1.095347375E1,7.344345748E-2,-3.188716620E-2,-7.695156336E-2
1.096347375E1,4.782202095E-2,-3.291691095E-2,-5.581562966E-2
1.097547375E1,1.319468953E-2,-3.495894372E-2,-4.598942399E-2
1.098547375E1,-1.483529899E-2,-3.565707803E-2,-4.525638744E-2
1.099747375E1,-3.663446009E-2,-4.056145251E-2,-5.363396928E-2
1.100747375E1,-3.349286690E-2,-6.185446680E-2,-6.307619810E-2
1.101947219E1,-1.467821933E-2,-8.457865566E-2,-7.892379165E-2
1.102947375E1,7.976154797E-3,-1.047895700E-1,-9.822712839E-2
1.103947375E1,2.731440216E-2,-1.104793400E-1,-1.197470427E-1
1.105147375E1,6.515314430E-2,-8.946557343E-2,-1.455953717E-1
1.106147375E1,1.070235893E-1,-4.909611121E-2,-1.733286530E-1
1.107147375E1,1.394867152E-1,-1.455604564E-2,-1.903979629E-1
1.108347375E1,1.633279175E-1,2.146754973E-2,-2.060710192E-1
1.109347375E1,1.850398034E-1,6.052801758E-2,-2.162113935E-1
1.110547219E1,1.685464382E-1,7.623597980E-2,-2.050238252E-1
1.111547375E1,1.478817463E-1,6.878342479E-2,-1.911833584E-1
1.112548625E1,1.193979755E-1,5.471607298E-2,-1.776919663E-1
1.113747375E1,5.516985804E-2,3.138101846E-2,-1.540078521E-1
1.114747375E1,1.560324337E-2,2.146754880E-3,-1.402721107E-1
1.115747375E1,-2.373647876E-3,-1.535889693E-2,-1.314058453E-1
1.116947375E1,-1.345648803E-2,-1.017526910E-2,-1.226791963E-1
1.117947375E1,-2.069960535E-2,-1.884955564E-3,-1.275835633E-1
1.118947375E1,-1.907644793E-2,8.220500313E-3,-1.366069168E-1
1.120147375E1,-1.877974346E-2,2.940879762E-2,-1.383697093E-1
1.121147375E1,-2.089159191E-2,5.181882530E-2,-1.391027421E-1
1.122347375E1,-3.944443911E-2,5.030038953E-2,-1.352630109E-1
1.123347375E1,-6.600835174E-2,3.775146976E-2,-1.267807186E-1
1.124347375E1,-8.372344077E-2,1.806415804E-2,-1.228013635E-1
1.125547375E1,-9.040805697E-2,8.621926419E-3,-1.214400083E-1
1.126547375E1,-7.653268427E-2,1.179842558E-2,-1.189790964E-1
1.127747375E1,-5.387831479E-2,2.117084339E-2,-1.189965457E-1
1.128747375E1,-3.696607426E-2,2.940879762E-2,-1.169370562E-1
1.129747375E1,-1.441641990E-2,4.534365237E-2,-1.149822921E-1
1.130947375E1,4.712388909E-4,6.606071442E-2,-1.054004356E-1
1.131947375E1,-2.844886621E-3,8.534660190E-2,-9.754645079E-2
1.132947375E1,-1.659808122E-2,1.045801267E-1,-8.332201838E-2
1.134147375E1,-4.705407470E-2,1.299223155E-1,-6.119124219E-2
1.135147375E1,-6.567674130E-2,1.510582417E-1,-3.928736225E-2
1.136347219E1,-7.330382615E-2,1.522799730E-1,-2.035053819E-2
1.137347375E1,-7.887142897E-2,1.361007690E-1,-1.089085452E-2
1.138347375E1,-9.798278660E-2,1.173035800E-1,3.298672382E-3
1.139547375E1,-1.026428118E-1,1.054702476E-1,1.525417715E-2
1.140547375E1,-1.000073627E-1,9.278170019E-2,1.960004680E-2
1.141747219E1,-1.079137102E-1,7.607889920E-2,3.625048697E-2
1.142747375E1,-1.237263903E-1,6.524040550E-2,4.960225895E-2
1.143747375E1,-1.453684717E-1,5.002113804E-2,6.384414434E-2
1.144947375E1,-1.652477682E-1,3.164282069E-2,8.126252890E-2
1.145947375E1,-1.777443290E-1,2.453932911E-2,9.347983450E-2
1.146947375E1,-1.747249067E-1,1.898918301E-2,9.985028952E-2
1.148147375E1,-1.669930965E-1,6.789330859E-3,1.107585952E-1
1.149147375E1,-1.641307622E-1,8.377580671E-4,1.151393726E-1
1.150347219E1,-1.598372459E-1,-3.263765713E-3,1.189092845E-1
1.151347375E1,-1.566258520E-1,-4.450589418E-3,1.290321946E-1
1.152347375E1,-1.595929116E-1,-2.792526793E-4,1.381951720E-1
1.153547219E1,-1.642005742E-1,-7.819075137E-3,1.491732895E-1
1.154547219E1,-1.641831249E-1,-2.251474746E-2,1.562593281E-1
1.155547375E1,-1.547059864E-1,-2.624975145E-2,1.588249654E-1
1.156747375E1,-1.198866665E-1,-2.101376466E-2,1.538856775E-1
1.157747375E1,-8.649851382E-2,-8.848818950E-3,1.504124701E-1
1.158747375E1,-6.579891592E-2,2.513274085E-3,1.499063224E-1
1.159947375E1,-4.824090004E-2,1.396263391E-2,1.455953717E-1
1.160947375E1,-3.401646763E-2,1.864011586E-2,1.402372122E-1
1.162147219E1,-2.502802201E-2,1.478293911E-2,1.427155733E-1
1.163147375E1,-1.933824830E-2,6.911503617E-3,1.495572627E-1
1.164147375E1,-1.478293911E-2,-2.076941775E-3,1.658062786E-1
1.165347375E1,-4.241149873E-3,-3.288200125E-2,1.917069703E-1
1.166347375E1,1.579522900E-2,-5.927138031E-2,1.901710778E-1
1.167347375E1,4.907865822E-2,-8.548622578E-2,1.708677262E-1
1.168547375E1,1.114043668E-1,-1.112123802E-1,1.454906464E-1
1.169547375E1,1.693318486E-1,-1.035329327E-1,1.296605170E-1
1.170747375E1,2.300343961E-1,-8.065166324E-2,1.198692098E-1
1.171747375E1,2.593908310E-1,-4.907865822E-2,1.399579495E-1
1.172747375E1,2.506991029E-1,-2.286381321E-3,1.786344498E-1
1.173747375E1,2.069611400E-1,4.389503226E-2,2.163335532E-1
1.174747531E1,1.251401007E-1,5.869542435E-2,2.317448109E-1
1.175947219E1,2.483603545E-2,2.883283980E-2,2.356369048E-1
1.176947375E1,-4.642575979E-3,-2.338741207E-3,2.309245169E-1
1.178147375E1,1.724385284E-2,-3.281218931E-3,2.307848930E-1
1.179347375E1,3.658210114E-2,1.989675313E-2,2.397558838E-1
1.180347375E1,3.237585723E-2,2.317797206E-2,2.374520451E-1
1.181347375E1,1.117010694E-2,1.576032303E-2,2.189864665E-1
1.182547375E1,-1.588249579E-2,-1.223475765E-2,1.882686615E-1
1.183547375E1,-4.300491139E-2,-3.644247353E-2,1.648114473E-1
1.184747219E1,-6.321582198E-2,-4.756022245E-2,1.322436035E-1
1.185747375E1,-5.400048569E-2,-5.398303270E-2,1.199041158E-1
1.186747375E1,-2.892010473E-2,-4.982915148E-2,1.065698043E-1
1.187747375E1,9.686577134E-3,-3.532546386E-2,8.164650202E-2
1.188947375E1,6.480407715E-2,-3.251548484E-2,4.583234712E-2
1.189947375E1,1.156804189E-1,-3.810053691E-2,2.192133479E-2
1.191147375E1,1.709899008E-1,-3.481931984E-2,2.984513063E-3
1.192147375E1,1.938537210E-1,-4.392993823E-2,2.443460980E-3
1.193347219E1,1.956164986E-1,-6.887069345E-2,1.621410809E-2
1.194347375E1,1.600117832E-1,-9.892526269E-2,3.862413764E-2
1.195347375E1,1.019446775E-1,-1.254542619E-1,6.625270098E-2
1.196547375E1,3.673918173E-2,-1.453859210E-1,1.021366641E-1
1.197547375E1,2.059488557E-3,-1.494176388E-1,1.242499873E-1
1.198547375E1,-1.996656694E-2,-1.476548612E-1,1.381602585E-1
1.199747375E1,-3.630284965E-2,-1.260302216E-1,1.451939344E-1
1.200747375E1,-4.386012256E-2,-1.027824357E-1,1.481435448E-1
1.201947219E1,-4.579744115E-2,-7.525859773E-2,1.400801241E-1
1.202947375E1,-4.942772537E-2,-5.160938576E-2,1.326799244E-1
1.203947375E1,-7.426375896E-2,-3.420845419E-2,1.297477782E-1
1.205147375E1,-1.012989059E-1,-1.502728462E-2,1.254018992E-1
1.206147375E1,-1.094146892E-1,-2.914699726E-3,1.233075112E-1
1.207147375E1,-1.115963534E-1,1.169370604E-3,1.137780100E-1
1.208347375E1,-1.070759520E-1,-1.954768784E-3,9.068730474E-2
1.209347375E1,-9.061749279E-2,-4.939281847E-3,6.806784123E-2
1.210547219E1,-6.611306965E-2,-2.687806962E-3,4.138175771E-2
1.211547375E1,-5.417501926E-2,5.218534265E-3,2.750638872E-2
1.212548625E1,-5.143485218E-2,2.717477642E-2,3.609341010E-2
1.213747375E1,-4.660028964E-2,4.808381945E-2,3.633775562E-2
1.214747375E1,-5.256931856E-2,4.454080388E-2,2.066469751E-2
1.215747375E1,-6.058037654E-2,2.975786291E-2,4.310963210E-3
1.216947375E1,-5.839871615E-2,2.227040194E-2,-7.784168236E-3
1.217947375E1,-3.584906086E-2,2.000147291E-2,-1.628392190E-2
1.219147219E1,-1.802925020E-2,-6.492624991E-3,-1.762782596E-2
1.220147375E1,-2.129301615E-2,-2.586578019E-2,-1.834340952E-2
1.221147375E1,-2.073451132E-2,-1.825614460E-2,-1.743583940E-2
1.222347375E1,-1.492256485E-2,8.970992640E-3,-6.684611086E-3
1.223347375E1,-1.338667516E-2,2.099631168E-2,-6.684611086E-3
1.224347375E1,-1.673770696E-2,2.635447122E-2,-2.439970337E-2
1.225547375E1,-2.080432512E-2,2.755874954E-2,-4.276056588E-2
1.226547375E1,-2.488839440E-2,2.242748067E-2,-5.619960278E-2
1.227747219E1,-2.370157093E-2,2.127556317E-2,-6.424556673E-2
1.228751594E1,-1.843067631E-2,2.525491454E-2,-6.709045917E-2
1.229947219E1,-1.654572040E-2,2.178170905E-2,-7.300712168E-2
1.230947375E1,-1.670280099E-2,1.874483563E-2,-8.285077661E-2
1.231947375E1,-1.883210242E-2,3.080506064E-2,-8.854055405E-2
1.232947375E1,-2.024581842E-2,4.825835302E-2,-8.683013171E-2
1.234147375E1,-1.996656694E-2,5.600761622E-2,-8.698721230E-2
1.235147375E1,-2.813470736E-2,4.749041051E-2,-8.960520476E-2
1.236347219E1,-3.122393973E-2,3.736750036E-2,-8.780751377E-2
1.237347375E1,-1.654572040E-2,2.998475730E-2,-9.531243145E-2
1.238347375E1,9.843656793E-3,3.675663471E-2,-1.137431040E-1
1.239547375E1,5.138249323E-2,3.778637946E-2,-1.376890242E-1
1.240547375E1,7.717845589E-2,3.529055789E-2,-1.549852341E-1
1.241547375E1,1.022937447E-1,2.659881860E-2,-1.841496825E-1
1.242747375E1,1.188569218E-1,1.633628085E-2,-2.106612474E-1
1.243747375E1,1.267632693E-1,5.881759338E-3,-2.066295296E-1
1.244747375E1,1.378111988E-1,8.936085738E-3,-1.932253987E-1
1.245947375E1,1.483006328E-1,4.555309191E-3,-1.659459025E-1
1.246947375E1,1.413367689E-1,-2.146754880E-3,-1.347917765E-1
1.248147375E1,1.321912408E-1,-1.680752076E-2,-1.087863743E-1
1.249147375E1,1.338842064E-1,-3.851941600E-2,-1.093972400E-1
1.250147375E1,1.457000822E-1,-6.356488913E-2,-1.262047589E-1
1.251347375E1,1.848478168E-1,-7.147122920E-2,-1.541300267E-1
1.252347375E1,2.220931500E-1,-7.628834248E-2,-1.790707856E-1
1.253547219E1,2.558827102E-1,-7.578219473E-2,-2.052158117E-1
1.254547375E1,2.714859545E-1,-4.630358517E-2,-2.035228461E-1
1.255547375E1,2.637890577E-1,-6.370451767E-3,-1.825963408E-1
1.256747375E1,1.996133029E-1,1.712168008E-2,-1.706408411E-1
1.257747375E1,1.182635128E-1,-7.330382708E-3,-1.662600636E-1
1.258747531E1,6.803293526E-2,-4.256857932E-2,-1.631184667E-1
1.259947375E1,4.651302472E-2,-3.940953314E-2,-1.558404416E-1
1.260947375E1,3.344050795E-2,-1.626646891E-2,-1.450892240E-1
1.262147219E1,2.883283980E-2,4.834562074E-3,-1.361356825E-1
1.263147375E1,2.115339041E-2,1.691224054E-2,-1.309171468E-1
1.264147375E1,1.647590846E-2,1.593485661E-2,-1.307426095E-1
1.265347375E1,2.199114859E-2,-8.028514567E-4,-1.378635615E-1
1.266347375E1,4.499458894E-2,-2.176425606E-2,-1.493478268E-1
1.267347375E1,8.431685716E-2,-3.890338913E-2,-1.600815952E-1
1.268347375E1,1.185078546E-1,-4.879940674E-2,-1.634500772E-1
1.269547375E1,1.342681795E-1,-4.984660447E-2,-1.562244147E-1
1.270747219E1,1.618094742E-1,-1.729621366E-2,-1.438151300E-1
1.271747375E1,1.962448210E-1,4.230678082E-2,-1.259778589E-1
1.272747375E1,2.188119292E-1,9.726719558E-2,-1.135162115E-1
1.273947375E1,2.056870461E-1,1.211258471E-1,-1.089259982E-1
1.274947375E1,1.739046127E-1,1.121548563E-1,-1.084024012E-1
1.276147219E1,1.502379477E-1,9.658651799E-2,-9.976302087E-2
1.277147375E1,1.323832273E-1,9.347983450E-2,-8.552113175E-2
1.278147375E1,1.138652787E-1,9.491100162E-2,-6.225589290E-2
1.279347219E1,7.658504695E-2,8.051203936E-2,-2.905973233E-2
1.280347375E1,3.033382259E-2,5.998696759E-2,-2.092649788E-2
1.281347375E1,-8.220500313E-3,4.033455998E-2,-1.591740362E-2
1.282547375E1,-3.974114731E-2,3.183480725E-2,-2.209586836E-2
1.283547688E1,-5.913175642E-2,4.440117627E-2,-3.145083413E-2
1.284747375E1,-8.161159605E-2,4.546582699E-2,-3.213151172E-2
1.285747375E1,-9.812241048E-2,3.480186686E-2,-3.344050795E-2
1.286747375E1,-1.079311594E-1,1.487020496E-2,-3.824016452E-2
1.287747375E1,-9.573131055E-2,5.445427261E-3,-4.937536269E-2
1.288947375E1,-8.862782270E-2,-1.399754081E-2,-5.340707675E-2
1.289947375E1,-9.911724925E-2,-2.802998759E-2,-4.283038154E-2
1.291147375E1,-1.018225104E-1,-4.829325899E-2,-3.220132366E-2
1.292147375E1,-9.843657166E-2,-5.930628628E-2,-1.734857261E-2
1.293347219E1,-9.791296721E-2,-6.277949363E-2,5.183627829E-3
1.294347375E1,-9.541714936E-2,-4.871213809E-2,2.134537697E-2
1.295347375E1,-9.103637189E-2,-2.239257470E-2,3.829252347E-2
1.296547375E1,-8.363617957E-2,1.183333248E-2,6.255260110E-2
1.297547375E1,-7.969173044E-2,3.040363453E-2,7.316420227E-2
1.298547375E1,-9.110618383E-2,3.995058686E-2,7.773696631E-2
1.299747375E1,-1.124341115E-1,3.075270168E-2,8.646360785E-2
1.300747375E1,-1.091877967E-1,2.598795295E-2,9.761626273E-2
1.301947219E1,-9.353219718E-2,2.947861142E-2,1.088387296E-1
1.302947375E1,-7.131415606E-2,2.553416602E-2,1.123992056E-1
1.303947375E1,-5.633922666E-2,1.926843449E-2,1.059240326E-1
1.305147375E1,-4.239404574E-2,2.211332135E-2,1.026428118E-1
1.306147375E1,-4.918337986E-2,3.347541392E-2,1.076868176E-1
1.307347219E1,-7.030186057E-2,4.546582699E-2,1.199215725E-1
1.308347375E1,-8.522442728E-2,6.660176069E-2,1.344601661E-1
1.309347375E1,-1.032187715E-1,8.161159605E-2,1.554215699E-1
1.310547219E1,-1.234820411E-1,8.545131981E-2,1.747772694E-1
1.311547375E1,-1.324879378E-1,7.421139628E-2,1.824218184E-1
1.312548625E1,-1.354200989E-1,5.112069473E-2,1.838180721E-1
1.313747375E1,-1.169021502E-1,2.476622164E-2,1.859473735E-1
1.314747688E1,-9.833184630E-2,2.071705833E-2,1.929112375E-1
1.315947219E1,-7.702138275E-2,3.214896470E-2,1.893158704E-1
1.316947375E1,-6.518805027E-2,4.380776361E-2,1.792802215E-1
1.317947375E1,-5.609488115E-2,6.312856078E-2,1.714087874E-1
1.319147219E1,-5.440191180E-2,8.229227364E-2,1.612858772E-1
1.320147375E1,-5.201081187E-2,9.499827027E-2,1.469916254E-1
1.321147375E1,-4.991641641E-2,1.075297371E-1,1.426806599E-1
1.322347375E1,-3.605850041E-2,1.402721107E-1,1.638166010E-1
1.323347375E1,-1.785471849E-2,1.439373046E-1,1.924400032E-1
1.324347375E1,-6.632251199E-3,1.242150813E-1,2.024407387E-1
1.325547375E1,-1.576032303E-2,9.344492853E-2,1.992118806E-1
1.326547375E1,-2.165953629E-2,7.726572454E-2,1.987231821E-1
1.327747375E1,-1.281071641E-2,7.195992768E-2,1.913753450E-1
1.328747375E1,2.443460980E-4,5.548401549E-2,1.737649739E-1
1.329747375E1,9.424777701E-3,3.469714522E-2,1.500110477E-1
1.330947375E1,1.665044017E-2,6.265731994E-3,1.337620318E-1
1.331947375E1,3.031636961E-2,-5.986479111E-3,1.212480217E-1
1.332947375E1,6.105161831E-2,4.014257283E-4,1.064127237E-1
1.334147375E1,8.681267500E-2,2.476622164E-2,1.007753089E-1
1.335147375E1,8.340928704E-2,4.993386939E-2,1.038121805E-1
1.336347219E1,4.958480224E-2,8.878489584E-2,1.172861233E-1
1.337347375E1,1.722639985E-2,1.003738865E-1,1.190140024E-1
1.338347375E1,-1.417207345E-2,8.876744658E-2,1.307600737E-1
1.339547375E1,-6.649704650E-3,6.384414434E-2,1.449670494E-1
1.340547375E1,2.124065720E-2,5.330235511E-2,1.431868076E-1
1.341547375E1,4.925319180E-2,5.290092900E-2,1.452812105E-1
1.342747375E1,5.478588492E-2,3.654719517E-2,1.528733820E-1
1.343747375E1,4.405210912E-2,4.141666368E-2,1.575508714E-1
1.344947219E1,7.784168236E-3,4.876450077E-2,1.610240787E-1
1.345947375E1,-3.745476529E-2,5.009094998E-2,1.711469889E-1
1.346947375E1,-8.241444826E-2,3.394665569E-2,1.797689050E-1
1.348147375E1,-1.113869101E-1,6.702064537E-3,1.619141996E-1
1.349147375E1,-8.585274220E-2,-1.303760987E-2,1.269727051E-1
1.350147375E1,-2.141519077E-2,-2.638937905E-2,8.395033330E-2
1.351347375E1,6.604325771E-2,-4.232423380E-2,3.349286690E-2
1.352347375E1,1.317199916E-1,-6.478662044E-2,3.193952609E-3
1.353547219E1,1.841496825E-1,-9.257226437E-2,-1.925098151E-2
1.354547375E1,2.124240249E-1,-1.003389806E-1,-2.609267272E-2
1.355547375E1,2.340486497E-1,-1.070934013E-1,-2.605776489E-2
1.356747375E1,2.496169955E-1,-1.148601174E-1,-2.607521974E-2
1.357747375E1,2.417280972E-1,-1.283864230E-1,-2.254965343E-2
1.358747375E1,2.204001844E-1,-1.390329301E-1,-2.082177810E-2
1.359947375E1,1.889667958E-1,-1.489114910E-1,-1.558579039E-2
1.360947375E1,1.597499847E-1,-1.535715163E-1,-1.713913307E-2
1.362147219E1,1.106887832E-1,-1.609368026E-1,-1.062905509E-2
1.363147375E1,6.756169349E-2,-1.520530879E-1,8.621926419E-3
1.364147375E1,2.389355749E-2,-1.329766363E-1,3.755948693E-2
1.365347375E1,-2.569124661E-2,-9.859365225E-2,6.442010403E-2
1.366347375E1,-5.785766616E-2,-7.641051710E-2,7.922049612E-2
1.367347375E1,-8.323474973E-2,-5.787511915E-2,8.115781099E-2
1.368547375E1,-1.124690175E-1,-5.312782153E-2,7.106980681E-2
1.369547375E1,-1.236216724E-1,-6.297148019E-2,5.590289459E-2
1.370747219E1,-1.217192635E-1,-7.655014098E-2,3.422590718E-2
1.371747375E1,-1.125039235E-1,-7.883652300E-2,1.850049011E-2
1.372747375E1,-1.000771821E-1,-7.436847687E-2,6.265731994E-3
1.373947375E1,-8.588765562E-2,-4.691445082E-2,-8.063420653E-3
1.374947375E1,-8.653342724E-2,-1.090830751E-2,-1.466076542E-2
1.376147219E1,-1.092227027E-1,2.054252476E-2,-1.612684131E-2
1.377147375E1,-1.330813617E-1,3.427826613E-2,-1.448623277E-2
1.378147375E1,-1.431693584E-1,4.167846218E-2,-1.464331243E-2
1.379347219E1,-1.514073163E-1,3.555235639E-2,-1.425934024E-2
1.380347375E1,-1.442863643E-1,1.877974346E-2,-1.589994878E-2
1.381347375E1,-1.228537261E-1,3.385938704E-3,-3.562216833E-2
1.382547375E1,-9.508553892E-2,-4.677482415E-3,-6.007423252E-2
1.383547375E1,-8.391542733E-2,-1.050688233E-2,-8.194320649E-2
1.384747375E1,-8.339183033E-2,-1.492256485E-2,-1.078438908E-1
1.385747375E1,-8.164650202E-2,-5.515240598E-3,-1.212480217E-1
1.386747375E1,-7.579965144E-2,2.221804112E-2,-1.258905977E-1
1.387747375E1,-6.789331138E-2,5.658357590E-2,-1.288751066E-1
1.388747375E1,-7.429866493E-2,8.787732571E-2,-1.147030368E-1
1.389947375E1,-9.515535086E-2,9.360200912E-2,-1.051909924E-1
1.390947375E1,-1.001819000E-1,7.195992768E-2,-1.160120368E-1
1.392147375E1,-9.300859272E-2,3.073524870E-2,-1.425759494E-1
1.393347219E1,-7.452555746E-2,6.335545331E-3,-1.736777127E-1
1.394347375E1,-6.120869517E-2,1.139700040E-2,-1.867851317E-1
1.395547219E1,-3.979350626E-2,3.965387866E-2,-1.933650225E-1
1.396547219E1,-1.790707745E-2,5.094616115E-2,-1.935046464E-1
1.397547375E1,-1.062905509E-2,5.747369304E-2,-1.880941391E-1
1.398547375E1,-5.148721393E-3,7.004006207E-2,-1.805194020E-1
1.399747375E1,-1.113520097E-2,6.183701381E-2,-1.811826229E-1
1.400747375E1,-1.532399096E-2,3.960151970E-2,-1.939060837E-1
1.401747375E1,-2.495820867E-3,1.958259381E-2,-2.072578520E-1
1.402947375E1,2.277654596E-2,4.555309191E-3,-2.196671367E-1
1.403947375E1,3.865904361E-2,3.752457909E-3,-2.252696455E-1
1.405147375E1,5.106833205E-2,-1.029744279E-3,-2.211855799E-1
1.406147375E1,5.091125518E-2,-5.061454722E-4,-2.061059326E-1
1.407147375E1,4.598942399E-2,-6.510077976E-3,-1.841496825E-1
1.408347375E1,4.045673087E-2,-8.604473434E-3,-1.522974372E-1
1.409347375E1,3.097959422E-2,-8.936085738E-3,-1.397310644E-1
1.410547219E1,2.003637888E-2,-2.932153177E-3,-1.373748630E-1
1.411547375E1,1.589994878E-2,-1.603957638E-2,-1.429599226E-1
1.412548625E1,2.071705833E-2,-2.733185515E-2,-1.609891653E-1
1.413747375E1,2.949606441E-2,-3.015928902E-2,-1.727526933E-1
1.414747375E1,3.548254445E-2,-2.893755957E-2,-1.619141996E-1
1.415747375E1,3.878121451E-2,-2.021091245E-2,-1.416334659E-1
1.416947375E1,2.132792398E-2,-5.777040031E-3,-1.071108580E-1
1.417947375E1,3.403391922E-3,1.221730490E-4,-7.543312758E-2
1.419147219E1,-1.214749180E-2,-7.574729156E-3,-5.728170648E-2
1.420147375E1,-2.359685116E-2,-3.710569814E-2,-6.410594285E-2
1.421147375E1,-2.804744057E-2,-6.588617712E-2,-8.059930801E-2
1.422347375E1,-2.619739249E-2,-7.449065149E-2,-9.112364054E-2
1.423347375E1,-1.968731359E-2,-7.414158434E-2,-9.564404190E-2
1.424347375E1,-1.511455141E-2,-6.962118298E-2,-8.916886896E-2
1.425547375E1,-1.158898603E-2,-6.819001585E-2,-7.265805453E-2
1.426547375E1,-1.371828746E-2,-7.307693362E-2,-5.567600206E-2
1.427747375E1,-2.151990868E-2,-8.141960949E-2,-2.502802201E-2
1.428747375E1,-9.564404376E-3,-7.141887397E-2,-1.499237865E-2
1.429747375E1,1.129228063E-2,-6.148795038E-2,-2.247984149E-2
1.430947375E1,2.644173801E-2,-6.515314430E-2,-3.869394958E-2
1.431947375E1,2.981022373E-2,-4.749041051E-2,-4.057890549E-2
1.432947375E1,4.658283666E-2,-4.433136433E-3,-3.605850041E-2
1.434147375E1,5.960299447E-2,4.354596511E-2,-2.106612362E-2
1.435147375E1,5.944591388E-2,6.480407715E-2,-1.293289009E-2
1.436347219E1,6.290166825E-2,6.152285635E-2,-1.354375482E-2
1.437347375E1,7.126179338E-2,4.270820692E-2,-1.977458037E-2
1.438347375E1,7.915068418E-2,1.610938832E-2,-2.432988957E-2
1.439547375E1,8.911651373E-2,-3.682644665E-2,-3.139847144E-2
1.440547375E1,9.321803600E-2,-6.309365481E-2,-4.365068302E-2
1.441547375E1,9.937904775E-2,-7.478735596E-2,-4.893903062E-2
1.442747375E1,1.022064835E-1,-4.948008433E-2,-3.743731230E-2
1.443747375E1,8.445648104E-2,-1.595230959E-2,-7.923794910E-3
1.444747375E1,4.246386141E-2,-2.757620299E-3,2.342231758E-2
1.445947375E1,-5.218534265E-3,-1.144936029E-2,4.230678082E-2
1.446947375E1,-3.593632951E-2,-1.893682219E-2,5.021312088E-2
1.448147375E1,-7.133160532E-2,-2.556907386E-2,6.536258012E-2
1.449147375E1,-9.859365225E-2,-3.049090132E-2,7.712610066E-2
1.450147375E1,-1.203753576E-1,-4.183554277E-2,8.461356163E-2
1.451347375E1,-1.343903542E-1,-5.433209985E-2,8.386307210E-2
1.452347375E1,-1.233947799E-1,-4.736823589E-2,7.918559015E-2
1.453547219E1,-8.583529294E-2,-2.492330223E-2,7.916813344E-2
1.454547375E1,-6.159266829E-2,-1.010545623E-2,7.562511414E-2
1.455547375E1,-5.420992523E-2,-4.817108624E-3,6.703809649E-2
1.456747375E1,-5.352924764E-2,9.669124149E-3,6.654940546E-2
1.457747375E1,-4.557054490E-2,3.085742146E-2,6.471680850E-2
1.458747375E1,-3.991568089E-2,4.475024343E-2,6.784094870E-2
1.459747375E1,-3.743731230E-2,5.384340882E-2,7.562511414E-2
1.460947375E1,-2.453932911E-2,6.674139202E-2,8.445648104E-2
1.462147219E1,-2.174680308E-2,7.929030806E-2,9.281660616E-2
1.463147375E1,-3.138101846E-2,7.892379165E-2,1.063429117E-1
1.464147375E1,-4.799655452E-2,7.471754402E-2,1.166054457E-1
1.465347375E1,-7.251843065E-2,5.550146848E-2,1.204626262E-1
1.466347375E1,-8.147197217E-2,3.647737950E-2,1.234296858E-1
1.467347375E1,-8.045967668E-2,2.131047100E-2,1.234296858E-1
1.468547375E1,-6.583382189E-2,1.453859266E-2,1.196597740E-1
1.469547375E1,-5.893976986E-2,1.363102160E-2,1.245990545E-1
1.470747219E1,-4.778711498E-2,1.291543618E-2,1.284213215E-1
1.471747375E1,-4.949753731E-2,7.120943163E-3,1.228537261E-1
1.472747375E1,-6.483898312E-2,-2.827433404E-3,1.203404516E-1
1.473947375E1,-8.773770183E-2,-7.330382708E-3,1.184205860E-1
1.474947375E1,-1.004960611E-1,1.157153305E-2,1.195550561E-1
1.475947375E1,-1.113869101E-1,3.071779385E-2,1.291718185E-1
1.477147375E1,-1.126435474E-1,3.570943698E-2,1.417905539E-1
1.478147375E1,-9.798278660E-2,3.136356547E-2,1.435358822E-1
1.479347219E1,-7.716100663E-2,2.089159191E-2,1.361705810E-1
1.480347375E1,-7.517132908E-2,1.317723561E-2,1.263792962E-1
1.481347375E1,-8.147197217E-2,1.762782573E-3,1.252971888E-1
1.482547375E1,-9.032078832E-2,4.136430100E-3,1.272170544E-1
1.483547375E1,-1.028522551E-1,2.160717547E-2,1.451939344E-1
1.484547375E1,-1.193630695E-1,3.401646763E-2,1.614255011E-1
1.485747375E1,-1.460142434E-1,3.481931984E-2,1.635722518E-1
1.486747375E1,-1.569574624E-1,1.645845547E-2,1.569225490E-1
1.487747375E1,-1.497143358E-1,3.141592606E-4,1.406735331E-1
1.488947375E1,-1.155757010E-1,-1.867502346E-3,1.148601174E-1
1.489947375E1,-7.387978584E-2,-1.588249579E-3,1.010720134E-1
1.491147375E1,-2.525491454E-2,-9.616764262E-3,9.032078832E-2
1.492147375E1,1.937315450E-3,-2.712241560E-2,8.951793611E-2
1.493347219E1,2.307325229E-2,-5.328490213E-2,9.361945838E-2
1.494347375E1,4.049163684E-2,-6.037093699E-2,9.960594028E-2
1.495347375E1,6.246533245E-2,-5.735151842E-2,1.131671518E-1
1.496547219E1,8.459610492E-2,-4.752531648E-2,1.310567707E-1
1.497547375E1,1.002517119E-1,-3.096214123E-2,1.469218135E-1
1.498547375E1,1.038470864E-1,-1.413716702E-3,1.668185741E-1
1.499747375E1,8.754571527E-2,3.626793995E-2,1.938537210E-1
1.500747375E1,6.295402348E-2,4.768239334E-2,2.021963894E-1
1.501947219E1,7.044149190E-2,1.541125681E-2,1.846732944E-1
1.502947375E1,1.110902056E-1,-2.373647690E-2,1.670629084E-1
1.503947375E1,1.648288965E-1,-4.352851212E-2,1.449496001E-1
1.505147219E1,2.278178334E-1,-5.098106712E-2,1.203928143E-1
1.506147375E1,2.387610376E-1,-3.384193406E-2,1.263443828E-1
1.507147375E1,2.207143307E-1,-1.151917316E-2,1.418254524E-1
1.508347375E1,1.757372022E-1,8.464846760E-3,1.535366178E-1
1.509347375E1,1.158724055E-1,1.204277202E-2,1.583188176E-1
1.510547219E1,4.593706504E-2,-1.724385284E-2,1.533446312E-1
1.511547375E1,2.206096239E-2,-4.757767543E-2,1.280897111E-1
1.512548625E1,4.016002640E-2,-7.358308136E-2,9.440486133E-2
1.513747219E1,9.428268671E-2,-1.011243761E-1,5.295328796E-2
1.514747375E1,1.480388194E-1,-1.019097716E-1,2.497566119E-2
1.515747375E1,1.956514120E-1,-8.482300490E-2,8.517206647E-3
1.516947375E1,2.384643406E-1,-5.361651629E-2,-2.617993741E-4
1.518147219E1,2.502453029E-1,-2.850122750E-2,-3.892084118E-3
1.519147219E1,2.473655194E-1,-1.200786512E-2,-1.057669520E-2
1.520147375E1,2.249380350E-1,-6.911503617E-3,-5.724680144E-3
1.521147375E1,2.024232894E-1,-2.556907386E-2,8.447393775E-3
1.522347375E1,1.827010661E-1,-5.319763720E-2,2.857103944E-2
1.523347375E1,1.668011099E-1,-7.639306039E-2,3.851941600E-2
1.524347375E1,1.388758421E-1,-9.876818210E-2,4.483750835E-2
1.525547375E1,9.548696131E-2,-1.200786531E-1,5.288347602E-2
1.526547375E1,6.391395628E-2,-1.184554994E-1,6.628760695E-2
1.527747375E1,4.710643739E-2,-8.663814515E-2,8.112290502E-2
1.528747375E1,1.291543618E-2,-5.712462589E-2,1.132195070E-1
1.529747531E1,-4.443608224E-2,-4.031710699E-2,1.528384835E-1
1.530947375E1,-9.810495377E-2,-1.960004680E-2,1.724559814E-1
1.531947375E1,-1.312138587E-1,-1.562069636E-2,1.801877916E-1
1.532947375E1,-1.508662552E-1,-1.923352852E-2,1.790358722E-1
1.534147375E1,-1.445830762E-1,-2.694788389E-2,1.583188176E-1
1.535347219E1,-1.180889755E-1,-4.565781355E-2,1.253495514E-1
1.536347219E1,-8.644615859E-2,-6.485643238E-2,9.314822406E-2
1.537347375E1,-5.235987902E-2,-6.140068173E-2,6.075491011E-2
1.538347375E1,-2.864085324E-2,-4.907865822E-2,4.249876738E-2
1.539547375E1,-1.745329238E-2,-2.689552307E-2,3.253293782E-2
1.540547375E1,-2.846631967E-2,-9.494591504E-3,3.043854237E-2
1.541547375E1,-4.736823589E-2,1.762782573E-3,4.197516665E-2
1.542747375E1,-5.581562966E-2,1.017526910E-2,4.927064478E-2
1.543747375E1,-4.480260238E-2,1.459095255E-2,4.146902263E-2
1.544947219E1,-2.151990868E-2,1.844812930E-2,2.450442314E-2
1.545947375E1,-1.302015595E-2,5.602506921E-3,1.282817032E-2
1.546947375E1,-7.190756500E-3,-1.101302728E-2,-3.839724232E-3
1.547947375E1,-6.440265104E-3,-2.834414691E-2,-1.471312530E-2
1.548947375E1,-1.247910410E-2,-3.611086309E-2,-1.692969352E-2
1.549947375E1,-2.338741161E-2,-3.263765574E-2,-1.350884791E-2
1.550947375E1,-4.024729133E-2,-2.713987045E-2,-3.612831468E-3
1.551947375E1,-6.094689667E-2,-2.206096239E-2,6.510077976E-3
1.552947375E1,-7.538077235E-2,-2.092649788E-2,1.504473854E-2
1.553947375E1,-8.133234084E-2,-2.223549411E-2,1.008800324E-2
1.554947375E1,-8.164650202E-2,-2.249729447E-2,7.696901914E-3
1.555947375E1,-8.459610492E-2,-1.391027402E-2,9.634217247E-3
1.556947375E1,-9.375908971E-2,7.679448463E-4,1.670280099E-2
1.557947375E1,-1.027824357E-1,1.101302728E-2,2.220058814E-2
1.558947375E1,-1.190314516E-1,1.481784508E-2,2.642428502E-2
1.559947375E1,-1.421570629E-1,1.583013684E-2,3.440044075E-2
1.560947375E1,-1.449670494E-1,6.928957067E-3,3.298672289E-2
1.561947375E1,-1.303761005E-1,-4.729842301E-3,2.352703735E-2
1.562947375E1,-1.002866179E-1,-1.094321441E-2,1.101302728E-2
1.564147375E1,-5.270894244E-2,-1.045452245E-2,-8.813912980E-3
1.565147375E1,-1.151917316E-2,-1.239183731E-2,-2.864085324E-2
1.566147375E1,1.816887781E-2,-7.330382941E-4,-4.085815698E-2
1.567347375E1,4.394739121E-2,7.312929723E-3,-5.469861999E-2
1.568547375E1,5.513495207E-2,-7.557275705E-3,-7.117452472E-2
1.569547375E1,5.316272750E-2,-1.942551509E-2,-7.581710070E-2
1.570747219E1,4.342379048E-2,-1.289798319E-2,-6.019640714E-2
1.571747375E1,4.555309191E-2,1.919862116E-4,-3.830997646E-2
1.572747375E1,5.017821491E-2,1.645845547E-2,-2.309070528E-2
1.573747375E1,4.946263134E-2,1.101302728E-2,-8.220500313E-3
1.574747375E1,3.659955412E-2,7.086036727E-3,1.605702913E-3
1.575747375E1,2.736676298E-2,1.481784508E-2,3.508111695E-3
1.576947219E1,2.398082428E-2,3.682644805E-3,1.429424621E-2
1.577947219E1,3.298672289E-2,-3.071779385E-3,1.679006778E-2
1.578947219E1,4.466297477E-2,-1.574287005E-2,6.859143730E-3
1.579947375E1,4.530874640E-2,-5.164429173E-2,-1.219985168E-2
1.580947375E1,5.797983706E-2,-8.370599151E-2,-3.501130641E-2
1.581947375E1,9.159488231E-2,-1.052782610E-1,-6.171484292E-2
1.582947375E1,1.330638975E-1,-1.041961536E-1,-8.286823332E-2
1.584147375E1,1.542696506E-1,-6.764896214E-2,-8.419468254E-2
1.585147375E1,1.333780587E-1,-3.682644665E-2,-7.557275891E-2
1.586347219E1,8.499753475E-2,-3.583160788E-2,-8.234463632E-2
1.587347375E1,5.621705577E-2,-5.508258939E-2,-8.201301843E-2
1.588347375E1,4.749041051E-2,-4.660028964E-2,-7.318165898E-2
1.589547375E1,3.947934881E-2,-2.466150187E-2,-5.337216705E-2
1.590547375E1,1.338667516E-2,-1.326450240E-2,-4.387757555E-2
1.591547375E1,-1.254891697E-2,-6.911503617E-3,-3.932226822E-2
1.592747375E1,-3.412118554E-2,-9.756390937E-3,-4.864232615E-2
1.593747375E1,-2.590068616E-2,-2.113593742E-2,-6.681120396E-2
1.594747688E1,5.585053586E-4,-3.146828711E-2,-8.508480340E-2
1.595947375E1,4.560545459E-2,-4.070107639E-2,-1.079660654E-1
1.596947375E1,8.087855577E-2,-4.134684801E-2,-1.326973885E-1
1.597947375E1,1.219461560E-1,-3.173008561E-2,-1.554215699E-1
1.599147375E1,1.688955128E-1,-1.403244678E-2,-1.819156706E-1
1.600147375E1,2.000496387E-1,8.360126987E-3,-1.954594254E-1
1.601347375E1,2.127556354E-1,4.820599407E-2,-1.889144331E-1
1.602347375E1,2.123018503E-1,8.752825856E-2,-1.662251502E-1
1.603547219E1,1.976759881E-1,1.288925707E-1,-1.349663138E-1
1.604547375E1,1.744631082E-1,1.416334659E-1,-1.102175415E-1
1.605547375E1,1.421221644E-1,1.373748630E-1,-8.632398397E-2
1.606747375E1,1.030616909E-1,1.219985113E-1,-6.419321150E-2
1.607747375E1,6.389650702E-2,9.852383286E-2,-5.145230517E-2
1.608747375E1,2.741912194E-2,6.827727705E-2,-3.825761750E-2
1.609947375E1,-3.473205259E-3,5.050982907E-2,-2.192133479E-2
1.610947375E1,-3.363249451E-2,4.408701509E-2,-4.886921961E-4
1.611947375E1,-6.010913849E-2,4.347615317E-2,1.040216256E-2
1.613147375E1,-7.927285135E-2,3.813544288E-2,9.512044489E-3
1.614147375E1,-7.728318125E-2,1.633628085E-2,8.552113432E-4
1.615347375E1,-5.803219602E-2,2.740166849E-3,-2.757620253E-2
1.616347375E1,-3.808308393E-2,9.145525284E-3,-4.838052765E-2
1.617347375E1,-2.268928103E-2,1.860520989E-2,-6.588617712E-2
1.618547375E1,-2.960078418E-2,2.851868048E-2,-7.853981853E-2
1.619547375E1,-4.775220901E-2,3.680899367E-2,-7.740534842E-2
1.620547375E1,-7.487462461E-2,4.246386141E-2,-6.080726907E-2
1.621747375E1,-1.008276716E-1,5.324999616E-2,-2.508038096E-2
1.622747375E1,-1.068839654E-1,5.621705577E-2,-6.981316837E-4
1.623947375E1,-1.050862744E-1,3.022910282E-2,1.773254573E-2
1.624947375E1,-9.372418374E-2,2.094394993E-3,2.068215236E-2
1.625947375E1,-6.567674130E-2,-8.045967668E-3,1.441641990E-2
1.627147375E1,-3.633775562E-2,-6.352998316E-3,1.274090353E-2
1.628147375E1,-2.991494350E-2,-1.134464052E-3,1.406735368E-2
1.629347219E1,-5.511749908E-2,1.583013684E-2,2.097885683E-2
1.630347375E1,-7.721336931E-2,2.734931000E-2,3.590142354E-2
1.631347375E1,-8.262388408E-2,3.792600334E-2,5.098106712E-2
1.632547375E1,-8.567821234E-2,6.279694289E-2,6.565928459E-2
1.633547375E1,-8.377580345E-2,6.970845163E-2,6.951646507E-2
1.634547375E1,-7.380997390E-2,5.304055661E-2,6.181956083E-2
1.635747375E1,-6.213372201E-2,1.900663599E-2,4.586725309E-2
1.636747375E1,-4.300491139E-2,2.827433404E-3,2.850122750E-2
1.637747375E1,-3.110176697E-2,1.902408898E-3,1.514945831E-2
1.638947375E1,-2.696533687E-2,1.153662615E-2,8.988445625E-3
1.639947375E1,-3.757693991E-2,1.265363675E-2,1.012290921E-2
1.641147375E1,-5.749114603E-2,1.499237865E-2,2.078687213E-2
1.642147375E1,-8.461356163E-2,3.082251363E-2,3.488913178E-2
1.643147375E1,-1.037947312E-1,3.549999744E-2,4.195771366E-2
1.644347375E1,-1.030965969E-1,2.911209129E-2,4.644321278E-2
1.645347375E1,-8.888962120E-2,2.724459022E-2,4.468042776E-2
1.646547219E1,-7.562511414E-2,3.516838327E-2,4.405210912E-2
1.647547375E1,-6.024876609E-2,3.804817796E-2,4.071853310E-2
1.648547375E1,-5.031784251E-2,4.721115530E-2,3.853686899E-2
1.649747375E1,-4.747295380E-2,5.492551252E-2,4.290019348E-2
1.650747375E1,-4.998622835E-2,5.351179466E-2,4.974188283E-2
1.651747375E1,-5.328490213E-2,5.073672161E-2,5.853834376E-2
1.652947375E1,-5.241223797E-2,4.358087108E-2,7.004006207E-2
1.653947375E1,-5.743878707E-2,3.227113932E-2,7.869689912E-2
1.655147219E1,-5.757841095E-2,1.921607554E-2,8.169886470E-2
1.656147375E1,-4.380776361E-2,9.913469665E-3,7.422885299E-2
1.657147375E1,-3.642502055E-2,-4.049163777E-3,7.009242475E-2
1.658347375E1,-4.003785178E-2,-9.320057929E-3,6.864380091E-2
1.659347375E1,-3.944443911E-2,-1.560324337E-2,7.248352468E-2
1.660347375E1,-3.839724511E-2,-9.512044489E-3,8.183848858E-2
1.661547375E1,-3.183480725E-2,-8.203047328E-4,9.595820308E-2
1.662548625E1,-1.914626174E-2,2.478367416E-3,1.021192148E-1
1.663747219E1,-5.707226694E-3,-3.700098023E-3,1.023461074E-1
1.664747375E1,1.466076542E-2,-1.591740362E-2,1.000771821E-1
1.665747375E1,4.626867920E-2,-2.216568217E-2,9.656906873E-2
1.666947375E1,8.719664812E-2,-2.623229846E-2,9.470156580E-2
1.667947375E1,1.357342601E-1,-1.361356769E-2,9.402088821E-2
1.668947375E1,1.722290963E-1,5.689773243E-3,1.030791476E-1
1.670147375E1,1.675865203E-1,5.042256042E-2,1.328195482E-1
1.671147375E1,1.125213802E-1,1.059414819E-1,1.708328277E-1
1.672347219E1,3.954916075E-2,1.320690662E-1,2.011666447E-1
1.673347375E1,1.354375482E-2,1.100255549E-1,2.137679309E-1
1.674347375E1,2.644173801E-2,7.920303941E-2,2.131221592E-1
1.675547375E1,5.469861999E-2,6.429792941E-2,2.172236741E-1
1.676547375E1,5.616469681E-2,5.124286562E-2,2.241875380E-1
1.677747375E1,3.696607426E-2,1.862266287E-2,2.253220081E-1
1.678747375E1,1.567305624E-2,-4.537856148E-4,2.212379426E-1
1.679747375E1,-1.036725566E-2,2.059488557E-2,2.212902904E-1
1.680947219E1,-5.799729005E-2,6.213372201E-2,2.199638486E-1
1.681947375E1,-8.450884372E-2,8.108799905E-2,2.098758370E-1
1.682947375E1,-7.443828881E-2,8.449138701E-2,1.806066632E-1
1.684147375E1,-4.211479425E-2,8.333947510E-2,1.505695581E-1
1.685147375E1,2.042035200E-2,9.182177484E-2,1.187522039E-1
1.686347219E1,1.003389806E-1,8.213519305E-2,9.807004780E-2
1.687347375E1,1.370956153E-1,4.935790971E-2,9.166469425E-2
1.688347375E1,1.466949284E-1,2.275909297E-2,1.041612476E-1
1.689547219E1,1.593834609E-1,1.438151300E-2,1.342681795E-1
1.690547219E1,1.461538672E-1,1.277581044E-2,1.604655683E-1
1.691547375E1,1.098684743E-1,-3.071779385E-3,1.904852390E-1
1.692747375E1,7.178539038E-2,-2.494075522E-2,2.160543054E-1
1.693747375E1,5.728170648E-2,-3.574434295E-2,2.315004766E-1
1.694947219E1,4.846779257E-2,-5.963790044E-2,2.367888242E-1
1.695947375E1,5.178391933E-2,-8.171631396E-2,2.362303138E-1
1.696947375E1,5.911429971E-2,-1.028173491E-1,2.296329737E-1
1.698147375E1,6.377433240E-2,-1.160469428E-1,2.281494439E-1
1.699147375E1,6.693337858E-2,-1.199390292E-1,2.327396572E-1
1.700147375E1,7.223917544E-2,-1.038296372E-1,2.353052944E-1
1.701347375E1,6.878342479E-2,-7.166321576E-2,2.439795732E-1
1.702347375E1,5.581562966E-2,-5.330235511E-2,2.496344447E-1
1.703547219E1,1.418952644E-2,-4.694935679E-2,2.366142869E-1
1.704547375E1,-3.420845373E-3,-5.832890421E-2,2.134363204E-1
1.705547375E1,5.480333697E-3,-5.565854907E-2,1.862091720E-1
1.706747375E1,2.043780498E-2,-5.026548356E-2,1.625076085E-1
1.707747375E1,4.607669078E-3,-5.738642439E-2,1.483006328E-1
1.708747375E1,-1.110029407E-2,-6.990043819E-2,1.362578571E-1
1.709947375E1,-1.281071641E-2,-6.707300246E-2,1.154709831E-1
1.710947375E1,-1.125737373E-2,-5.513495207E-2,1.058542207E-1
1.711947375E1,-2.403318323E-2,-4.813618213E-2,9.662142396E-2
1.713147375E1,-3.830997646E-2,-4.653047770E-2,7.923794538E-2
1.714147375E1,-4.546582699E-2,-5.340707675E-2,6.147049740E-2
1.715347375E1,-3.520328924E-2,-4.295255244E-2,3.351031989E-2
1.716347375E1,-3.143338114E-2,-2.673844434E-2,1.759291813E-2
1.717347375E1,-2.553416602E-2,-1.778490469E-2,6.981316983E-5
1.718547375E1,-1.980948634E-2,-4.293509759E-3,-1.802925020E-2
1.719547375E1,-1.670280099E-2,6.003932562E-3,-2.480112948E-2
1.720747219E1,-2.343977243E-2,1.893682219E-2,-2.326523885E-2
1.721747375E1,-3.640756756E-2,2.905973233E-2,-1.897172816E-2
1.722747375E1,-5.478588492E-2,2.387610450E-2,-1.535889693E-2
1.723947375E1,-8.381070942E-2,1.302015595E-2,-1.483529899E-2
1.724947375E1,-1.034980267E-1,5.201081280E-3,-1.589994878E-2
1.725947375E1,-1.202357337E-1,-1.240929123E-2,-2.131047100E-2
1.727147375E1,-1.197819486E-1,-3.209660575E-2,-4.820599407E-2
1.728147375E1,-1.133591309E-1,-3.005456924E-2,-6.284930557E-2
1.729347219E1,-9.539970011E-2,-2.136282995E-2,-8.229227364E-2
1.730347375E1,-7.492698729E-2,-1.870992966E-2,-1.049990058E-1
1.731347375E1,-5.234242231E-2,-1.691224054E-2,-1.306902468E-1
1.732547375E1,-3.012438305E-2,-1.966986060E-2,-1.511455178E-1
1.733547375E1,-2.441715635E-2,-1.377064735E-2,-1.654397547E-1
1.734547375E1,-2.740166895E-2,1.832595677E-3,-1.755452156E-1
1.735747375E1,-2.272418700E-2,2.110103145E-2,-1.818982214E-1
1.736747375E1,-1.450368576E-2,3.371975943E-2,-1.825090796E-1
1.737747375E1,-1.179842558E-2,3.480186686E-2,-1.803623289E-1
1.738947375E1,-1.396263391E-2,1.761037298E-2,-1.801877916E-1
1.739947375E1,-1.509709843E-2,2.478367416E-3,-1.811826229E-1
1.741147375E1,-1.651081443E-2,-1.476548519E-2,-1.897521913E-1
1.742347219E1,-9.948377265E-4,-6.614797749E-3,-1.983392090E-1
1.743347219E1,1.237438433E-2,6.981316954E-3,-2.011317462E-1
1.744347375E1,9.878563695E-3,1.377064735E-2,-2.043256909E-1
1.745347375E1,2.268928074E-4,1.352630183E-2,-2.073276639E-1
1.746547219E1,-8.464846760E-3,1.097812131E-2,-2.175203860E-1
1.747547375E1,-1.713913307E-2,1.260127686E-2,-2.315877378E-1
1.748547375E1,-1.389282104E-2,1.720894687E-2,-2.304707319E-1
1.749747375E1,8.011061698E-3,2.584832534E-2,-2.153387219E-1
1.750747375E1,2.850122750E-2,2.270673402E-2,-2.202256471E-1
1.751747375E1,4.169591516E-2,1.366592757E-2,-2.409950644E-1
1.752947375E1,6.550220400E-2,3.822271014E-3,-2.691995800E-1
1.753947375E1,8.752825856E-2,2.092649788E-2,-2.796715498E-1
1.755147219E1,8.065166324E-2,6.707300246E-2,-2.536312342E-1
1.756147375E1,5.686282739E-2,9.492845833E-2,-2.218488008E-1
1.757147375E1,3.007202223E-2,1.014559865E-1,-2.074149251E-1
1.758347375E1,7.278022822E-3,6.834709644E-2,-1.945169419E-1
1.759347375E1,9.075712296E-4,3.045599535E-2,-1.776745170E-1
1.760347375E1,2.617993858E-3,1.928588748E-2,-1.696983576E-1
1.761547375E1,2.371902391E-2,3.748967126E-2,-1.676912308E-1
1.762548625E1,3.532546386E-2,5.050982907E-2,-1.636071652E-1
1.763747219E1,3.588397056E-2,4.555309191E-2,-1.824567169E-1
1.764747375E1,4.878195375E-2,3.684389964E-2,-2.136283070E-1
1.765747375E1,5.810201168E-2,3.405137360E-2,-2.293537110E-1
1.766947375E1,7.103490084E-2,4.265584797E-2,-2.432989031E-1
1.767947375E1,9.075712413E-2,4.509930685E-2,-2.607347369E-1
1.768947375E1,1.081406027E-1,3.960151970E-2,-2.729694843E-1
1.770147375E1,1.219985113E-1,2.460914291E-2,-2.780832946E-1
1.771147375E1,1.361182332E-1,3.125884756E-2,-2.783102095E-1
1.772347219E1,1.399230510E-1,7.052875310E-2,-2.606823742E-1
1.773347375E1,1.197993979E-1,9.272934496E-2,-2.431069165E-1
1.774347375E1,8.857546002E-2,9.953612834E-2,-2.287603021E-1
1.775547375E1,4.181808978E-2,9.515535086E-2,-2.027374506E-1
1.776547375E1,3.735004691E-3,8.562584966E-2,-1.797689050E-1
1.777547375E1,-2.619739249E-2,6.403613091E-2,-1.539729387E-1
1.778747375E1,-4.579744115E-2,4.194026068E-2,-1.382649839E-1
1.779747375E1,-4.656538367E-2,2.506292798E-2,-1.347045153E-1
1.780947219E1,-3.780383244E-2,-2.356194425E-3,-1.390852928E-1
1.781947375E1,-3.656464815E-2,-2.298598550E-2,-1.448972374E-1
1.782947375E1,-3.579670191E-2,-3.314380348E-2,-1.453859210E-1
1.784147375E1,-4.389503226E-2,-2.071705833E-2,-1.438500434E-1
1.785147375E1,-5.962044746E-2,6.841690745E-3,-1.323832273E-1
1.786347219E1,-8.388052136E-2,1.877974346E-2,-1.163436472E-1
1.787347375E1,-1.054876968E-1,8.918632753E-3,-1.035852879E-1
1.788347375E1,-1.271123290E-1,-2.705260413E-3,-9.201376140E-2
1.789547219E1,-1.363451183E-1,-1.823868975E-2,-8.204792440E-2
1.790547375E1,-1.292241812E-1,-3.640756756E-2,-7.815584540E-2
1.791547375E1,-1.149822921E-1,-4.953244328E-2,-7.934267074E-2
1.792747375E1,-1.118756011E-1,-7.325147092E-2,-7.628834248E-2
1.793747375E1,-1.194677874E-1,-7.829546928E-2,-7.042403519E-2
1.794747375E1,-1.223650351E-1,-5.515240505E-2,-6.377433240E-2
1.795747375E1,-1.174606606E-1,-2.134537697E-2,-4.733332992E-2
1.796947375E1,-1.102699041E-1,1.862266287E-2,-2.588323317E-2
1.798147219E1,-1.196074113E-1,3.263765574E-2,-1.893682219E-2
1.799147375E1,-1.300444752E-1,2.249729447E-2,-2.050761878E-2
1.800147375E1,-1.249481216E-1,1.364847459E-2,-2.597049996E-2
1.801347375E1,-9.813986719E-2,2.296853252E-2,-2.925171889E-2
1.802347375E1,-8.442157507E-2,3.235840425E-2,-3.366740048E-2
1.803547219E1,-7.751007378E-2,3.249803185E-2,-3.289945796E-2
1.804547375E1,-6.967354566E-2,3.284709528E-2,-3.721041977E-2
1.805547375E1,-6.836454570E-2,3.668681905E-2,-3.888593614E-2
1.806747219E1,-7.934267074E-2,3.118903376E-2,-2.511528693E-2
1.807747375E1,-8.754571527E-2,3.260274976E-2,-1.851794310E-2
1.808747375E1,-1.015083492E-1,3.930481523E-2,-6.963863503E-3
1.809947375E1,-1.180889755E-1,4.326671362E-2,2.789036185E-2
1.810947375E1,-1.277581006E-1,4.064871743E-2,5.918411538E-2
1.812147219E1,-1.310916841E-1,2.118829638E-2,6.590363383E-2
1.813147375E1,-1.321563274E-1,-2.338741207E-3,6.960373372E-2
1.814147375E1,-1.231853366E-1,-2.174680308E-2,7.578219473E-2
1.815147375E1,-1.152615398E-1,-2.905973233E-2,7.941248268E-2
1.816347375E1,-1.126435474E-1,-3.396410868E-2,8.810421824E-2
1.817347375E1,-1.045626774E-1,-2.984512970E-2,9.211847931E-2
1.818547375E1,-9.477137774E-2,-1.481784508E-2,9.269443899E-2
1.819547375E1,-8.731882274E-2,7.627088577E-3,9.632471949E-2
1.820747219E1,-7.571238279E-2,4.996877536E-2,1.012639999E-1
1.821747375E1,-6.890559942E-2,7.391469181E-2,1.046848446E-1
1.822747375E1,-5.794493109E-2,7.922049612E-2,1.072155759E-1
1.823947375E1,-4.836307466E-2,7.948229462E-2,1.052258983E-1
1.824947375E1,-3.289945796E-2,8.217009902E-2,8.972737938E-2
1.825947375E1,-1.712168008E-2,7.431612164E-2,8.255407214E-2
1.827147375E1,-5.899212789E-3,6.386159360E-2,9.197884798E-2
1.828147375E1,1.134464052E-2,6.859143823E-2,1.060113013E-1
1.829347219E1,3.070034087E-2,8.964011073E-2,1.236565784E-1
1.830347375E1,4.052654654E-2,1.007927656E-1,1.298350394E-1
1.831347375E1,4.406956211E-2,1.002517119E-1,1.273566782E-1
1.832547375E1,5.885250121E-2,7.857472450E-2,1.094670519E-1
1.833547375E1,8.902924508E-2,6.581636518E-2,8.005825430E-2
1.834547375E1,1.303237379E-1,5.354670063E-2,4.921828583E-2
1.835747375E1,1.776570678E-1,5.551892146E-2,2.352703735E-2
1.836747375E1,2.102772743E-1,8.054694533E-2,1.635373570E-2
1.837747375E1,2.165779024E-1,1.361531317E-1,3.089232743E-2
1.838747375E1,1.884082854E-1,1.847431064E-1,5.504768342E-2
1.839747531E1,1.315280050E-1,1.963495463E-1,6.482152641E-2
1.840947219E1,7.784168422E-2,1.528384835E-1,5.021312088E-2
1.841947219E1,7.475244999E-2,1.270250678E-1,5.012585595E-2
1.842947219E1,9.306095541E-2,1.329940856E-1,7.173303515E-2
1.843947219E1,8.367108554E-2,1.276359260E-1,8.772024512E-2
1.844947219E1,5.012585595E-2,1.130275205E-1,8.895943314E-2
1.845947375E1,3.066543490E-2,1.058018580E-1,8.281587064E-2
1.846947375E1,1.246165112E-2,9.140289575E-2,8.014551550E-2
1.848147219E1,3.769911127E-3,1.038296372E-1,7.351326942E-2
1.849147375E1,-1.476548519E-2,1.177748144E-1,6.759659946E-2
1.850147375E1,-1.776745170E-2,1.182635128E-1,5.185373127E-2
1.851347375E1,1.602212340E-2,8.173377067E-2,1.375319436E-2
1.852347375E1,5.914920941E-2,4.700171575E-2,-1.965240762E-2
1.853547219E1,1.121199504E-1,1.619665511E-2,-4.822344705E-2
1.854547375E1,1.489813030E-1,-3.525565146E-3,-6.361725181E-2
1.855547375E1,1.703615934E-1,-3.616322204E-2,-6.777113676E-2
1.856747219E1,1.818633080E-1,-6.047565863E-2,-7.368779927E-2
1.857747375E1,1.877799779E-1,-8.283332735E-2,-6.520549953E-2
1.858747375E1,1.920560300E-1,-1.082104146E-1,-5.258677155E-2
1.859947375E1,1.829279512E-1,-1.380206347E-1,-3.988077492E-2
1.860947375E1,1.718276590E-1,-1.669756472E-1,-2.829178795E-2
1.861947375E1,1.600292325E-1,-1.987057328E-1,-1.459095255E-2
1.863147375E1,1.368338168E-1,-2.374345958E-1,4.502949305E-3
1.864147375E1,1.168847010E-1,-2.599144280E-1,1.966986060E-2
1.865347219E1,8.168140799E-2,-2.645919025E-1,4.382521659E-2
1.866347375E1,4.930555075E-2,-2.575756907E-1,6.044075266E-2
1.867347375E1,1.816887781E-2,-2.534567118E-1,6.679374725E-2
1.868547375E1,-2.696533687E-2,-2.377836555E-1,7.218682021E-2
1.869547375E1,-5.682792142E-2,-2.155307084E-1,7.520623505E-2
1.870747219E1,-6.602580845E-2,-1.944994926E-1,5.604252219E-2
1.871747375E1,-6.546729803E-2,-1.893507689E-1,3.752457723E-2
1.872747375E1,-5.782275647E-2,-1.803099662E-1,2.902482450E-2
1.873747375E1,-5.366887525E-2,-1.562418789E-1,3.008947708E-2
1.874747375E1,-7.056365907E-2,-1.357517093E-1,3.836233541E-2
1.875747375E1,-1.020494029E-1,-1.352630109E-1,5.014330894E-2
1.876947219E1,-1.402546614E-1,-1.320690662E-1,5.290092900E-2
1.877947219E1,-1.647416204E-1,-1.285434961E-1,4.794419557E-2
1.878947375E1,-1.788962483E-1,-1.261523962E-1,3.642502055E-2
1.880147219E1,-1.821251065E-1,-1.345299780E-1,8.517206647E-3
1.881147219E1,-1.570098251E-1,-1.432391703E-1,-2.487094142E-2
1.882147375E1,-1.324181259E-1,-1.413716674E-1,-5.892231688E-2
1.883347219E1,-1.188743785E-1,-1.251401007E-1,-8.164650202E-2
1.884347375E1,-1.235867664E-1,-1.054353416E-1,-9.227555990E-2
1.885547219E1,-1.358215213E-1,-8.609709144E-2,-9.913469851E-2
1.886547219E1,-1.535540670E-1,-7.103490084E-2,-9.711012244E-2
1.887547375E1,-1.748819947E-1,-4.853760451E-2,-8.936085552E-2
1.888747219E1,-1.978156120E-1,-3.548254445E-2,-9.169960022E-2
1.889747219E1,-2.114117295E-1,-3.787364438E-2,-1.030442417E-1
1.890747219E1,-2.182359695E-1,-4.808381945E-2,-1.164483652E-1
1.891747219E1,-2.106786966E-1,-5.237733200E-2,-1.326101124E-1
1.892747375E1,-1.971000284E-1,-5.461135134E-2,-1.509360671E-1
1.893747375E1,-1.782330275E-1,-4.855506122E-2,-1.713040620E-1
1.894747375E1,-1.690351367E-1,-3.954916075E-2,-1.781108528E-1
1.895747375E1,-1.683719158E-1,-3.415609151E-2,-1.790882349E-1
1.896947375E1,-1.760862619E-1,-2.719222941E-2,-1.871691048E-1
1.898147219E1,-1.720196456E-1,-1.909390278E-2,-2.063851804E-1
1.899147375E1,-1.588249654E-1,-1.151917316E-2,-2.254092693E-1
1.900147375E1,-1.523323357E-1,-6.719517522E-3,-2.413266748E-1
1.901347375E1,-1.336922199E-1,-5.445427261E-3,-2.603332996E-1
1.902347375E1,-1.131846011E-1,-1.361356815E-3,-2.672448158E-1
1.903547219E1,-8.339183033E-2,1.361356769E-2,-2.699326277E-1
1.904547375E1,-4.916592315E-2,2.532472648E-2,-2.762507200E-1
1.905547375E1,-1.710422710E-2,3.488913178E-2,-2.973691821E-1
1.906747219E1,1.251401100E-2,4.399975017E-2,-3.332182467E-1
1.907747375E1,2.656391077E-2,4.466297477E-2,-3.562566042E-1
1.908747375E1,4.141666368E-2,4.729842395E-2,-3.610388041E-1
1.909747375E1,5.658357590E-2,5.667084083E-2,-3.488389552E-1
1.910947375E1,5.962044746E-2,6.026621908E-2,-3.206518888E-1
1.912147219E1,5.023057386E-2,4.949753731E-2,-2.922379375E-1
1.913147375E1,3.312635049E-2,3.087487444E-2,-2.687807083E-1
1.914147375E1,2.232276089E-2,1.274090377E-3,-2.577153146E-1
1.915347219E1,2.597049996E-2,-2.515019476E-2,-2.611187100E-1
1.916347375E1,4.028219730E-2,-3.148574010E-2,-2.653074861E-1
1.917347375E1,5.457644537E-2,-3.040363453E-2,-2.629862130E-1
1.918547375E1,9.377653897E-2,-1.689478755E-2,-2.776120603E-1
1.919547375E1,1.193456128E-1,-7.819075137E-3,-2.794795632E-1
1.920747219E1,1.307251602E-1,1.127482671E-2,-2.716081440E-1
1.921747375E1,1.085071191E-1,4.019493237E-2,-2.498787940E-1
1.922747375E1,5.630432069E-2,6.110397726E-2,-2.174854726E-1
1.923747375E1,1.850049011E-3,6.567674130E-2,-1.899965405E-1
1.924947375E1,-2.666863054E-2,4.663519561E-2,-1.575334221E-1
1.925947375E1,-3.729768470E-2,3.253293782E-2,-1.343030781E-1
1.927147375E1,-3.270747140E-2,1.658062823E-2,-1.110378429E-1
1.928151125E1,-3.719296679E-2,1.436406001E-2,-1.043357849E-1
1.929347219E1,-3.947934881E-2,3.193952609E-3,-1.158898622E-1
1.930347375E1,-1.987930015E-2,-9.058258496E-3,-1.442340016E-1
1.931347375E1,2.155481651E-2,-1.249655709E-2,-1.779886782E-1
1.932547375E1,8.923868090E-2,2.340486459E-2,-2.054601610E-1
1.933547375E1,1.306204349E-1,8.580038697E-2,-2.253569067E-1
1.934547375E1,1.411098689E-1,1.432740837E-1,-2.373473197E-1
1.935747375E1,1.400452256E-1,1.645321846E-1,-2.450965792E-1
1.936747375E1,1.493827254E-1,1.645321846E-1,-2.638239563E-1
1.937747375E1,1.653699428E-1,1.649510711E-1,-2.824117243E-1
1.938947375E1,1.788962483E-1,1.695063710E-1,-2.764252424E-1
1.939947375E1,1.905550510E-1,1.716880351E-1,-2.613281608E-1
1.941147375E1,1.926843524E-1,1.422443390E-1,-2.324254960E-1
1.942147375E1,1.882686615E-1,1.081929579E-1,-2.120749503E-1
1.943147375E1,1.777268797E-1,7.756242901E-2,-1.937664598E-1
1.944347375E1,1.636769772E-1,3.469714522E-2,-1.748994440E-1
1.945347375E1,1.500284970E-1,-9.634217247E-3,-1.646718085E-1
1.946547219E1,1.318247169E-1,-3.850196302E-2,-1.688955128E-1
1.947547375E1,1.164134592E-1,-4.103269055E-2,-1.746027321E-1
1.948547375E1,1.061160192E-1,-2.689552307E-2,-1.763480604E-1
1.949747375E1,1.021017581E-1,7.958701812E-3,-1.770112962E-1
1.950747375E1,8.890707046E-2,3.153809905E-2,-1.647067219E-1
1.951747375E1,6.923720986E-2,3.392919898E-2,-1.523148865E-1
1.952947375E1,3.951425478E-2,2.031563222E-2,-1.476548612E-1
1.953947375E1,1.677261479E-2,8.325220086E-3,-1.430297345E-1
1.955147219E1,-4.293509759E-3,-2.066469751E-2,-1.420174390E-1
1.956147375E1,-1.989675313E-2,-3.827507049E-2,-1.434660703E-1
1.957147375E1,-3.014183603E-2,-4.118977115E-2,-1.441292912E-1
1.958347375E1,-4.752531648E-2,-2.839650773E-2,-1.318421662E-1
1.959347375E1,-6.078981608E-2,-1.459095255E-2,-1.209862232E-1
1.960347375E1,-7.024950534E-2,-1.692969352E-3,-1.167101637E-1
1.961347375E1,-8.365362883E-2,1.558579039E-2,-1.141270772E-1
1.962548625E1,-9.857619554E-2,2.738421597E-2,-1.126959100E-1
1.963747219E1,-1.157327816E-1,3.450515866E-2,-1.159945801E-1
1.964747375E1,-1.370258033E-1,3.103195317E-2,-1.182111502E-1
1.965747375E1,-1.517040133E-1,3.455751762E-2,-1.203579083E-1
1.966747375E1,-1.627519578E-1,3.417354822E-2,-1.157676876E-1
1.967747375E1,-1.676563323E-1,3.246312216E-2,-1.088561863E-1
1.968947219E1,-1.626472324E-1,3.792600334E-2,-9.655161202E-2
1.969947219E1,-1.473407000E-1,4.736823589E-2,-8.232717961E-2
1.970947219E1,-1.332907975E-1,5.483824387E-2,-6.277949363E-2
1.971947375E1,-1.274963021E-1,5.773549154E-2,-4.551818594E-2
1.973147219E1,-1.271821409E-1,3.857177496E-2,-3.057816811E-2
1.974147219E1,-1.335176826E-1,1.048942842E-2,-2.178170905E-2
1.975147219E1,-1.433962435E-1,-7.819075137E-3,-9.756390937E-3
1.976147219E1,-1.482831687E-1,-1.734857261E-2,4.712388851E-3
1.977147375E1,-1.458222568E-1,-1.584758982E-2,2.764601447E-2
1.978147375E1,-1.450194120E-1,-9.930923581E-3,4.352851212E-2
1.979347219E1,-1.382998824E-1,-1.151917316E-2,5.363396928E-2
1.980347375E1,-1.351583004E-1,-1.778490469E-2,6.211626902E-2
1.981347375E1,-1.303062886E-1,-1.349139493E-2,6.576400250E-2
1.982547219E1,-1.161342114E-1,2.199114766E-3,6.822492182E-2
1.983547375E1,-1.096415818E-1,1.169370580E-2,6.906268001E-2
1.984547375E1,-1.187347472E-1,1.026253588E-2,7.007496804E-2
1.985747375E1,-1.228362694E-1,7.644542027E-3,6.398376822E-2
1.986747375E1,-9.957103431E-2,1.291543618E-2,5.167919770E-2
1.987747375E1,-6.035348400E-2,1.829105057E-2,4.061381146E-2
1.988947375E1,-1.633628085E-2,2.249729447E-2,3.092723340E-2
1.989947375E1,1.352630183E-2,1.935570128E-2,2.125811018E-2
1.991147375E1,3.270747140E-2,1.244419720E-2,1.827359758E-2
1.992147375E1,3.551745042E-2,1.260127686E-2,2.295107953E-2
1.993147375E1,3.214896470E-2,2.101376466E-2,3.127630055E-2
1.994347375E1,2.160717547E-2,2.471386269E-2,4.914847016E-2
1.995347375E1,1.658062823E-2,2.614503168E-2,6.539748609E-2
1.996547219E1,1.783726551E-2,3.104940802E-2,8.007570356E-2
1.997547375E1,2.244493365E-2,2.829178795E-2,8.806931227E-2
1.998547375E1,3.293436393E-2,1.993165910E-2,8.941321820E-2
1.999747375E1,6.560692936E-2,3.508111695E-3,7.365289330E-2
2.000747375E1,9.908234328E-2,-1.532399096E-2,5.223770440E-2
2.001747375E1,1.375842988E-1,-3.242821619E-2,2.309070528E-2
2.002947375E1,1.791580468E-1,-4.852015153E-2,-4.537856148E-4
2.003947375E1,2.052507252E-1,-5.159193277E-2,-2.478367416E-3
2.004947375E1,2.260201424E-1,-4.899139330E-2,1.523672417E-2
2.006147375E1,2.582214475E-1,-3.218387067E-2,3.295181692E-2
2.007147375E1,2.910685539E-1,-6.387905218E-3,4.199262336E-2
2.008147375E1,2.970026731E-1,3.611086309E-2,6.490879506E-2
2.009347375E1,2.450616807E-1,9.147270769E-2,1.006705910E-1
2.010347375E1,1.690525860E-1,1.152964532E-1,1.256287992E-1
2.011547375E1,8.026769012E-2,9.431759268E-2,1.466949284E-1
2.012548625E1,2.302089334E-2,6.054547057E-2,1.604830176E-1
2.013747219E1,5.044001620E-3,5.981243402E-2,1.619840115E-1
2.014747375E1,4.012512043E-2,6.131341681E-2,1.565560400E-1
2.015747375E1,9.550441802E-2,6.136577576E-2,1.474628747E-1
2.016947375E1,1.306553483E-1,6.529276818E-2,1.370258033E-1
2.017947375E1,1.018050537E-1,7.244861871E-2,1.485798806E-1
2.018947375E1,3.810053691E-2,7.016223669E-2,1.734159142E-1
2.020147375E1,-3.656464815E-2,4.989896342E-2,2.018124163E-1
2.021147375E1,-5.178391933E-2,2.874557301E-2,2.085319310E-1
2.022347219E1,-1.944296807E-2,1.186823938E-3,1.796641946E-1
2.023347375E1,3.960151970E-2,-1.003564335E-2,1.326450258E-1
2.024347375E1,1.056447774E-1,-2.473131567E-2,9.449212253E-2
2.025347375E1,1.591740251E-1,-4.122467712E-2,6.361725181E-2
2.026547375E1,1.759466380E-1,-8.169886470E-2,3.281218931E-2
2.027547375E1,1.492954642E-1,-1.331337094E-1,2.218313515E-2
2.028747375E1,1.037074625E-1,-1.732064784E-1,4.598942399E-2
2.029747375E1,7.302457839E-2,-1.608320922E-1,8.545131981E-2
2.030947219E1,4.091051593E-2,-1.252099127E-1,1.177922711E-1
2.031947375E1,1.480039209E-2,-1.252797395E-1,1.325752139E-1
2.033147219E1,-1.562069636E-2,-1.408480704E-1,1.347568780E-1
2.034147375E1,-3.440044075E-2,-1.537635028E-1,1.279675364E-1
2.035147375E1,-4.157374427E-2,-1.659110039E-1,1.204975322E-1
2.036147375E1,-4.488986731E-2,-1.692445725E-1,1.131496951E-1
2.037347375E1,-5.506513640E-2,-1.727875918E-1,1.076693609E-1
2.038347375E1,-7.106980681E-2,-1.626995951E-1,1.060287505E-1
2.039547219E1,-9.347983450E-2,-1.381253600E-1,1.133940443E-1
2.040547375E1,-1.095019579E-1,-1.134638563E-1,1.140921712E-1
2.041547375E1,-1.109331250E-1,-8.576548100E-2,1.073901057E-1
2.042747375E1,-9.677850455E-2,-5.422737822E-2,9.866346419E-2
2.043747375E1,-7.731808722E-2,-4.204498231E-2,8.073893189E-2
2.044747375E1,-5.722934753E-2,-5.202826485E-2,6.126105785E-2
2.045947375E1,-2.736676298E-2,-7.197737694E-2,3.415609151E-2
2.046947375E1,-3.438298590E-3,-8.468337357E-2,8.552113548E-3
2.047947375E1,1.556833647E-2,-8.740609139E-2,-8.639379404E-3
2.049147375E1,1.944296807E-2,-9.049531817E-2,-2.120575123E-2
2.050347219E1,4.136430100E-3,-7.995353639E-2,-2.785545401E-2
2.051347844E1,7.155850180E-4,-5.515240505E-2,-3.111921996E-2
2.052547219E1,1.312487572E-2,-3.178244457E-2,-3.975860029E-2
2.053547219E1,2.213077433E-2,-2.900737152E-2,-4.769985005E-2
2.054547375E1,2.413790300E-2,-3.654719517E-2,-5.298819765E-2
2.055547375E1,3.021164984E-2,-4.942772537E-2,-5.909684673E-2
2.056747219E1,4.831071198E-2,-5.106833205E-2,-7.387978584E-2
2.057747375E1,5.169665068E-2,-5.223770440E-2,-8.342673630E-2
2.058747375E1,3.916518763E-2,-5.180137232E-2,-8.801695704E-2
2.059947375E1,5.078908056E-3,-4.286528751E-2,-8.606218547E-2
2.060947375E1,-1.719149388E-2,-2.490584925E-2,-7.768460363E-2
2.061947375E1,-3.342305496E-2,-6.859143730E-3,-7.024950534E-2
2.063147375E1,-6.056292355E-2,-1.378810150E-3,-6.668902934E-2
2.064147375E1,-9.894271195E-2,-1.766273193E-2,-5.789257213E-2
2.065147375E1,-1.350535750E-1,-3.399901465E-2,-5.771803856E-2
2.066347375E1,-1.575683206E-1,-4.989896342E-2,-5.916666240E-2
2.067347375E1,-1.474454105E-1,-5.115560070E-2,-6.798057258E-2
2.068547375E1,-1.342332661E-1,-4.105014354E-2,-8.578293025E-2
2.069547375E1,-1.340238303E-1,-3.844960406E-2,-9.847147763E-2
2.070547375E1,-1.274090409E-1,-3.522074595E-2,-1.106364205E-1
2.071747375E1,-1.146157682E-1,-1.357866172E-2,-1.166054457E-1
2.072747375E1,-1.148775741E-1,-1.239183731E-2,-1.108284071E-1
2.073947219E1,-1.081406027E-1,5.427973811E-3,-1.041961536E-1
2.074947375E1,-1.082976833E-1,3.106686100E-2,-9.993755072E-2
2.075947375E1,-1.118232459E-1,4.284783453E-2,-8.929104358E-2
2.076947375E1,-1.057320461E-1,6.846926361E-2,-7.799876481E-2
2.078147375E1,-1.010545641E-1,8.805186301E-2,-7.147122920E-2
2.079347219E1,-1.288751066E-1,7.944738865E-2,-6.426302344E-2
2.080347375E1,-1.672723591E-1,4.330161959E-2,-6.346017122E-2
2.081347375E1,-1.865931451E-1,1.225221157E-2,-5.326744914E-2
2.082347375E1,-1.658586413E-1,6.318091881E-3,-4.049163684E-2
2.083547375E1,-1.241976321E-1,1.406735368E-2,-3.015928902E-2
2.084547375E1,-9.934414178E-2,5.078908056E-3,-2.275909297E-2
2.085747375E1,-5.623450875E-2,-1.254891697E-2,-3.679154068E-2
2.086747375E1,-8.133234456E-3,-4.057890549E-2,-6.565928459E-2
2.087747375E1,3.600614145E-2,-6.771877408E-2,-1.080882400E-1
2.088947375E1,8.508480340E-2,-1.082104146E-1,-1.640085876E-1
2.089947375E1,1.318072677E-1,-1.374795884E-1,-2.020393163E-1
2.091147219E1,1.978156120E-1,-1.173908487E-1,-2.137853801E-1
2.092147375E1,2.193180770E-1,-5.229006335E-2,-1.841496825E-1
2.093147375E1,1.900139898E-1,8.412486874E-3,-1.394343525E-1
2.094347375E1,1.245990545E-1,9.983283468E-3,-1.106887832E-1
2.095347375E1,8.070402592E-2,-2.907718532E-2,-9.780824929E-2
2.096547219E1,4.961971194E-2,-4.399975017E-2,-6.803293526E-2
2.097547375E1,2.710496262E-2,-9.477137588E-3,-3.270747140E-2
2.098547375E1,-6.195918657E-3,1.473057922E-2,1.169370604E-3
2.099747219E1,-4.368559271E-2,1.115265395E-2,1.567305624E-2
2.100747375E1,-5.106833205E-2,2.268928103E-3,1.373574138E-2
2.101747375E1,-3.518583626E-2,-2.932153177E-3,9.913469665E-3
2.102947375E1,1.064650831E-3,-2.734931000E-2,-7.801621687E-3
2.103947375E1,3.574434295E-2,-6.237806752E-2,-4.036946595E-2
2.105147219E1,8.742354065E-2,-9.065239877E-2,-8.358381689E-2
2.106147375E1,1.215970889E-1,-1.048070192E-1,-1.092401594E-1
2.107147375E1,1.450368613E-1,-8.773770183E-2,-1.294161677E-1
2.108147375E1,1.559451669E-1,-4.799655452E-2,-1.377064735E-1
2.109347375E1,1.787217110E-1,2.562143281E-2,-1.321563274E-1
2.110347375E1,1.901710778E-1,1.010371074E-1,-1.110203937E-1
2.111547375E1,1.914626211E-1,1.611287892E-1,-8.040732145E-2
2.112548625E1,1.888097227E-1,1.673770696E-1,-6.560692936E-2
2.113747219E1,1.717578471E-1,1.288052946E-1,-7.239625603E-2
2.114747375E1,1.451939344E-1,7.651523501E-2,-7.375761122E-2
2.115747375E1,1.282642484E-1,3.707079217E-2,-6.417575479E-2
2.116947375E1,1.168323383E-1,8.185594343E-3,-4.724606127E-2
2.117947375E1,9.663888067E-2,-8.290314116E-3,-3.291691095E-2
2.118947375E1,6.733480096E-2,-2.635447122E-2,-2.138028294E-2
2.120147375E1,4.448844120E-2,-3.033382259E-2,-1.317723561E-2
